subject,usable,age,age_group,gender,version,block_num,condition,trial_num,trial_in_block,mine_prob_win_left,mine_prob_win_right,subj_choice,feedback,latent_guess,optimal_choice,choice_RT
26,1,24.93333333,Adult,0,B,1,2,1,1,0.8,0.2,1,1,0,1,0.918404818
26,1,24.93333333,Adult,0,B,1,2,2,2,0.8,0.2,1,1,0,1,1.185116053
26,1,24.93333333,Adult,0,B,1,2,3,3,0.8,0.2,1,1,0,1,1.801582098
26,1,24.93333333,Adult,0,B,1,2,4,4,0.8,0.2,1,0,0,1,0.335407019
26,1,24.93333333,Adult,0,B,1,2,5,5,0.8,0.2,1,1,0,1,0.818587065
26,1,24.93333333,Adult,0,B,1,2,6,6,0.8,0.2,1,1,0,1,0.435166121
26,1,24.93333333,Adult,0,B,1,2,7,7,0.8,0.2,1,1,0,1,0.601711035
26,1,24.93333333,Adult,0,B,1,2,8,8,0.8,0.2,1,0,1,1,0.601917028
26,1,24.93333333,Adult,0,B,1,2,9,9,0.8,0.2,1,1,1,1,0.785316944
26,1,24.93333333,Adult,0,B,1,2,10,10,0.8,0.2,1,1,0,1,0.918231964
26,1,24.93333333,Adult,0,B,1,2,11,11,0.8,0.2,1,1,0,1,0.45204711
26,1,24.93333333,Adult,0,B,1,2,12,12,0.8,0.2,1,1,0,1,0.501790047
26,1,24.93333333,Adult,0,B,1,2,13,13,0.8,0.2,1,0,0,1,1.151499033
26,1,24.93333333,Adult,0,B,1,2,14,14,0.8,0.2,1,1,0,1,0.501773834
26,1,24.93333333,Adult,0,B,1,2,15,15,0.8,0.2,1,1,0,1,0.635210037
26,1,24.93333333,Adult,0,B,1,2,16,16,0.8,0.2,1,1,0,1,0.501571894
26,1,24.93333333,Adult,0,B,1,2,17,17,0.8,0.2,1,1,0,1,0.435043097
26,1,24.93333333,Adult,0,B,1,2,18,18,0.8,0.2,1,1,0,1,0.568686962
26,1,24.93333333,Adult,0,B,1,2,19,19,0.8,0.2,1,1,0,1,0.601843119
26,1,24.93333333,Adult,0,B,1,2,20,20,0.8,0.2,1,1,0,1,0.45183301
26,1,24.93333333,Adult,0,B,1,2,21,21,0.8,0.2,1,1,0,1,0.551822901
26,1,24.93333333,Adult,0,B,1,2,22,22,0.8,0.2,1,1,0,1,0.752032995
26,1,24.93333333,Adult,0,B,1,2,23,23,0.8,0.2,1,1,0,1,0.735141039
26,1,24.93333333,Adult,0,B,1,2,24,24,0.8,0.2,1,1,0,1,0.583276987
26,1,24.93333333,Adult,0,B,1,2,25,25,0.8,0.2,1,1,0,1,0.518646002
26,1,24.93333333,Adult,0,B,1,2,26,26,0.8,0.2,1,1,0,1,0.585292101
26,1,24.93333333,Adult,0,B,1,2,27,27,0.8,0.2,1,1,0,1,0.918515205
26,1,24.93333333,Adult,0,B,1,2,28,28,0.8,0.2,1,1,0,1,0.616667032
26,1,24.93333333,Adult,0,B,1,2,29,29,0.8,0.2,1,1,0,1,0.6352911
26,1,24.93333333,Adult,0,B,1,2,30,30,0.8,0.2,1,1,0,1,0.88488102
26,1,24.93333333,Adult,0,B,1,2,31,31,0.8,0.2,1,1,0,1,0.435400009
26,1,24.93333333,Adult,0,B,1,2,32,32,0.8,0.2,1,0,0,1,0.502216101
26,1,24.93333333,Adult,0,B,1,2,33,33,0.8,0.2,1,1,0,1,0.485306025
26,1,24.93333333,Adult,0,B,1,2,34,34,0.8,0.2,1,1,0,1,0.651855946
26,1,24.93333333,Adult,0,B,1,2,35,35,0.8,0.2,1,1,0,1,0.518838882
26,1,24.93333333,Adult,0,B,1,2,36,36,0.8,0.2,1,1,0,1,0.43531394
26,1,24.93333333,Adult,0,B,1,2,37,37,0.8,0.2,1,1,0,1,0.502068996
26,1,24.93333333,Adult,0,B,1,2,38,38,0.8,0.2,1,1,0,1,0.452321053
26,1,24.93333333,Adult,0,B,1,2,39,39,0.8,0.2,1,1,0,1,0.501955032
26,1,24.93333333,Adult,0,B,1,2,40,40,0.8,0.2,1,1,0,1,0.633716106
26,1,24.93333333,Adult,0,B,1,2,41,41,0.8,0.2,1,1,0,1,0.635398865
26,1,24.93333333,Adult,0,B,1,2,42,42,0.8,0.2,1,1,0,1,0.468659163
26,1,24.93333333,Adult,0,B,1,2,43,43,0.8,0.2,1,0,0,1,0.618930101
26,1,24.93333333,Adult,0,B,1,2,44,44,0.8,0.2,1,1,0,1,0.418712854
26,1,24.93333333,Adult,0,B,1,2,45,45,0.8,0.2,1,1,0,1,0.4503932
26,1,24.93333333,Adult,0,B,1,2,46,46,0.8,0.2,1,1,0,1,0.401875973
26,1,24.93333333,Adult,0,B,1,2,47,47,0.8,0.2,1,1,0,1,0.368650198
26,1,24.93333333,Adult,0,B,1,2,48,48,0.8,0.2,1,1,0,1,0.216859102
26,1,24.93333333,Adult,0,B,1,2,49,49,0.8,0.2,1,1,0,1,0.352143049
26,1,24.93333333,Adult,0,B,1,2,50,50,0.8,0.2,1,1,0,1,0.268620968
26,1,24.93333333,Adult,0,B,2,3,51,1,0.8,0.2,1,1,0,1,2.168139935
26,1,24.93333333,Adult,0,B,2,3,52,2,0.8,0.2,1,1,0,1,0.26852417
26,1,24.93333333,Adult,0,B,2,3,53,3,0.8,0.2,1,1,0,1,0.368699789
26,1,24.93333333,Adult,0,B,2,3,54,4,0.8,0.2,1,1,0,1,0.401876926
26,1,24.93333333,Adult,0,B,2,3,55,5,0.8,0.2,1,0,0,1,0.318577051
26,1,24.93333333,Adult,0,B,2,3,56,6,0.8,0.2,1,0,0,1,0.768408775
26,1,24.93333333,Adult,0,B,2,3,57,7,0.8,0.2,1,1,0,1,0.301936865
26,1,24.93333333,Adult,0,B,2,3,58,8,0.8,0.2,1,1,0,1,0.335293055
26,1,24.93333333,Adult,0,B,2,3,59,9,0.8,0.2,1,1,0,1,0.418493032
26,1,24.93333333,Adult,0,B,2,3,60,10,0.8,0.2,1,0,0,1,1.051607847
26,1,24.93333333,Adult,0,B,2,3,61,11,0.8,0.2,1,1,0,1,0.53518796
26,1,24.93333333,Adult,0,B,2,3,62,12,0.8,0.2,1,0,0,1,0.584911108
26,1,24.93333333,Adult,0,B,2,3,63,13,0.8,0.2,1,1,0,1,0.41860795
26,1,24.93333333,Adult,0,B,2,3,64,14,0.8,0.2,1,0,0,1,0.501933813
26,1,24.93333333,Adult,0,B,2,3,65,15,0.8,0.2,1,0,0,1,0.468465805
26,1,24.93333333,Adult,0,B,2,3,66,16,0.8,0.2,1,1,0,1,0.485130787
26,1,24.93333333,Adult,0,B,2,3,67,17,0.8,0.2,1,1,0,1,0.585063934
26,1,24.93333333,Adult,0,B,2,3,68,18,0.8,0.2,1,1,0,1,0.518438101
26,1,24.93333333,Adult,0,B,2,3,69,19,0.8,0.2,1,0,0,1,0.751729965
26,1,24.93333333,Adult,0,B,2,3,70,20,0.8,0.2,1,1,0,1,0.60173583
26,1,24.93333333,Adult,0,B,2,3,71,21,0.8,0.2,1,1,0,1,0.551962852
26,1,24.93333333,Adult,0,B,2,3,72,22,0.8,0.2,1,1,0,1,0.385211945
26,1,24.93333333,Adult,0,B,2,3,73,23,0.8,0.2,1,1,0,1,0.435233116
26,1,24.93333333,Adult,0,B,2,3,74,24,0.8,0.2,1,0,0,1,0.618652821
26,1,24.93333333,Adult,0,B,2,3,75,25,0.8,0.2,1,1,0,1,0.50189805
26,1,24.93333333,Adult,0,B,2,3,76,26,0.8,0.2,1,1,0,1,0.735124111
26,1,24.93333333,Adult,0,B,2,3,77,27,0.8,0.2,1,1,0,1,0.535250902
26,1,24.93333333,Adult,0,B,2,3,78,28,0.8,0.2,1,0,0,1,0.51672101
26,1,24.93333333,Adult,0,B,2,3,79,29,0.8,0.2,1,1,0,1,0.468185902
26,1,24.93333333,Adult,0,B,2,3,80,30,0.8,0.2,1,0,0,1,0.551681995
26,1,24.93333333,Adult,0,B,2,3,81,31,0.8,0.2,1,0,1,1,0.552096128
26,1,24.93333333,Adult,0,B,2,3,82,32,0.8,0.2,1,0,1,1,0.366718054
26,1,24.93333333,Adult,0,B,2,3,83,33,0.8,0.2,1,1,0,1,1.085043907
26,1,24.93333333,Adult,0,B,2,3,84,34,0.8,0.2,0,1,1,0,0.851778984
26,1,24.93333333,Adult,0,B,2,3,85,35,0.8,0.2,1,1,0,1,0.351905107
26,1,24.93333333,Adult,0,B,2,3,86,36,0.8,0.2,1,1,0,1,0.401808977
26,1,24.93333333,Adult,0,B,2,3,87,37,0.8,0.2,0,0,0,0,0.335261106
26,1,24.93333333,Adult,0,B,2,3,88,38,0.8,0.2,1,0,1,1,0.268682957
26,1,24.93333333,Adult,0,B,2,3,89,39,0.8,0.2,1,1,0,1,0.485267162
26,1,24.93333333,Adult,0,B,2,3,90,40,0.8,0.2,1,1,0,1,0.268618822
26,1,24.93333333,Adult,0,B,2,3,91,41,0.8,0.2,1,1,0,1,0.468728065
26,1,24.93333333,Adult,0,B,2,3,92,42,0.8,0.2,1,1,0,1,0.801858902
26,1,24.93333333,Adult,0,B,2,3,93,43,0.8,0.2,0,0,0,0,0.201850891
26,1,24.93333333,Adult,0,B,2,3,94,44,0.8,0.2,1,1,0,1,0.418785095
26,1,24.93333333,Adult,0,B,2,3,95,45,0.8,0.2,1,1,0,1,0.501970053
26,1,24.93333333,Adult,0,B,2,3,96,46,0.8,0.2,1,1,0,1,0.535035133
26,1,24.93333333,Adult,0,B,2,3,97,47,0.8,0.2,1,1,0,1,0.285183907
26,1,24.93333333,Adult,0,B,2,3,98,48,0.8,0.2,1,1,0,1,0.301967859
26,1,24.93333333,Adult,0,B,2,3,99,49,0.8,0.2,1,1,0,1,2.451237917
26,1,24.93333333,Adult,0,B,2,3,100,50,0.8,0.2,1,1,0,1,0.268621922
26,1,24.93333333,Adult,0,B,3,1,101,1,0.8,0.2,1,1,0,1,1.051763058
26,1,24.93333333,Adult,0,B,3,1,102,2,0.8,0.2,1,1,0,1,0.302010059
26,1,24.93333333,Adult,0,B,3,1,103,3,0.8,0.2,1,0,1,1,0.21875906
26,1,24.93333333,Adult,0,B,3,1,104,4,0.8,0.2,1,0,1,1,0.285279036
26,1,24.93333333,Adult,0,B,3,1,105,5,0.8,0.2,1,1,0,1,0.335448027
26,1,24.93333333,Adult,0,B,3,1,106,6,0.8,0.2,1,1,0,1,0.452005148
26,1,24.93333333,Adult,0,B,3,1,107,7,0.8,0.2,1,1,0,1,0.335346937
26,1,24.93333333,Adult,0,B,3,1,108,8,0.8,0.2,1,0,0,1,0.535251856
26,1,24.93333333,Adult,0,B,3,1,109,9,0.8,0.2,0,0,0,0,0.368682861
26,1,24.93333333,Adult,0,B,3,1,110,10,0.8,0.2,1,1,0,1,0.235381126
26,1,24.93333333,Adult,0,B,3,1,111,11,0.8,0.2,1,0,0,1,0.618553877
26,1,24.93333333,Adult,0,B,3,1,112,12,0.8,0.2,1,1,0,1,0.485144138
26,1,24.93333333,Adult,0,B,3,1,113,13,0.8,0.2,1,1,0,1,0.335316896
26,1,24.93333333,Adult,0,B,3,1,114,14,0.8,0.2,1,1,0,1,0.652134895
26,1,24.93333333,Adult,0,B,3,1,115,15,0.8,0.2,1,0,1,1,0.53531909
26,1,24.93333333,Adult,0,B,3,1,116,16,0.8,0.2,1,1,0,1,0.401697874
26,1,24.93333333,Adult,0,B,3,1,117,17,0.8,0.2,1,0,1,1,0.418632984
26,1,24.93333333,Adult,0,B,3,1,118,18,0.8,0.2,1,1,0,1,0.385056019
26,1,24.93333333,Adult,0,B,3,1,119,19,0.8,0.2,1,1,0,1,0.551870823
26,1,24.93333333,Adult,0,B,3,1,120,20,0.8,0.2,1,0,0,1,0.501914024
26,1,24.93333333,Adult,0,B,3,1,121,21,0.8,0.2,1,1,0,1,0.568454027
26,1,24.93333333,Adult,0,B,3,1,122,22,0.8,0.2,1,1,0,1,0.468351126
26,1,24.93333333,Adult,0,B,3,1,123,23,0.8,0.2,1,1,0,1,0.568826914
26,1,24.93333333,Adult,0,B,3,1,124,24,0.8,0.2,1,1,0,1,0.518673897
26,1,24.93333333,Adult,0,B,3,1,125,25,0.8,0.2,1,1,0,1,0.38352108
26,1,24.93333333,Adult,0,B,3,1,126,26,0.8,0.2,1,0,0,1,0.451796055
26,1,24.93333333,Adult,0,B,3,1,127,27,0.8,0.2,1,1,0,1,0.518655062
26,1,24.93333333,Adult,0,B,3,1,128,28,0.8,0.2,1,1,0,1,0.485219002
26,1,24.93333333,Adult,0,B,3,1,129,29,0.8,0.2,1,1,0,1,0.768306017
26,1,24.93333333,Adult,0,B,3,1,130,30,0.8,0.2,1,0,1,1,0.435235977
26,1,24.93333333,Adult,0,B,3,1,131,31,0.8,0.2,1,1,0,1,0.651760101
26,1,24.93333333,Adult,0,B,3,1,132,32,0.8,0.2,1,0,1,1,0.252027988
26,1,24.93333333,Adult,0,B,3,1,133,33,0.8,0.2,1,1,0,1,0.485320091
26,1,24.93333333,Adult,0,B,3,1,134,34,0.8,0.2,1,0,0,1,0.568477154
26,1,24.93333333,Adult,0,B,3,1,135,35,0.8,0.2,1,1,0,1,0.468504906
26,1,24.93333333,Adult,0,B,3,1,136,36,0.8,0.2,1,0,0,1,0.401958942
26,1,24.93333333,Adult,0,B,3,1,137,37,0.8,0.2,1,0,0,1,0.485232115
26,1,24.93333333,Adult,0,B,3,1,138,38,0.8,0.2,1,1,0,1,0.466840029
26,1,24.93333333,Adult,0,B,3,1,139,39,0.8,0.2,1,1,0,1,0.568527937
26,1,24.93333333,Adult,0,B,3,1,140,40,0.8,0.2,1,0,0,1,0.735171795
26,1,24.93333333,Adult,0,B,3,1,141,41,0.8,0.2,1,1,0,1,0.635188818
26,1,24.93333333,Adult,0,B,3,1,142,42,0.8,0.2,1,0,0,1,0.485394955
26,1,24.93333333,Adult,0,B,3,1,143,43,0.8,0.2,1,1,0,1,0.551892042
26,1,24.93333333,Adult,0,B,3,1,144,44,0.8,0.2,1,0,0,1,0.535032988
26,1,24.93333333,Adult,0,B,3,1,145,45,0.8,0.2,1,0,0,1,0.65196085
26,1,24.93333333,Adult,0,B,3,1,146,46,0.8,0.2,1,0,1,1,2.651281118
26,1,24.93333333,Adult,0,B,3,1,147,47,0.8,0.2,1,0,0,1,0.718554974
26,1,24.93333333,Adult,0,B,3,1,148,48,0.8,0.2,1,1,0,1,0.468532085
26,1,24.93333333,Adult,0,B,3,1,149,49,0.8,0.2,1,1,0,1,0.935190201
26,1,24.93333333,Adult,0,B,3,1,150,50,0.8,0.2,1,0,1,1,0.585180998
77,1,23.6,Adult,1,C,1,3,1,1,0.2,0.8,1,1,0,0,1.185018063
77,1,23.6,Adult,1,C,1,3,2,2,0.2,0.8,1,0,1,0,0.75184989
77,1,23.6,Adult,1,C,1,3,3,3,0.2,0.8,0,1,0,1,0.568354845
77,1,23.6,Adult,1,C,1,3,4,4,0.2,0.8,0,1,0,1,0.583361149
77,1,23.6,Adult,1,C,1,3,5,5,0.2,0.8,0,0,1,1,0.418453217
77,1,23.6,Adult,1,C,1,3,6,6,0.2,0.8,0,1,0,1,0.585150957
77,1,23.6,Adult,1,C,1,3,7,7,0.2,0.8,0,0,0,1,0.702003002
77,1,23.6,Adult,1,C,1,3,8,8,0.2,0.8,1,1,1,0,0.685255051
77,1,23.6,Adult,1,C,1,3,9,9,0.2,0.8,1,0,0,0,0.568352938
77,1,23.6,Adult,1,C,1,3,10,10,0.2,0.8,1,0,0,0,0.41862607
77,1,23.6,Adult,1,C,1,3,11,11,0.2,0.8,0,1,0,1,0.302218914
77,1,23.6,Adult,1,C,1,3,12,12,0.2,0.8,0,1,0,1,0.285054207
77,1,23.6,Adult,1,C,1,3,13,13,0.2,0.8,0,0,1,1,0.368535995
77,1,23.6,Adult,1,C,1,3,14,14,0.2,0.8,0,1,0,1,0.31855607
77,1,23.6,Adult,1,C,1,3,15,15,0.2,0.8,0,0,0,1,0.551820993
77,1,23.6,Adult,1,C,1,3,16,16,0.2,0.8,0,1,0,1,0.301930189
77,1,23.6,Adult,1,C,1,3,17,17,0.2,0.8,0,1,0,1,0.318573952
77,1,23.6,Adult,1,C,1,3,18,18,0.2,0.8,0,0,0,1,0.351971865
77,1,23.6,Adult,1,C,1,3,19,19,0.2,0.8,0,1,1,1,0.318339825
77,1,23.6,Adult,1,C,1,3,20,20,0.2,0.8,0,0,1,1,0.368343115
77,1,23.6,Adult,1,C,1,3,21,21,0.2,0.8,0,1,1,1,0.918423891
77,1,23.6,Adult,1,C,1,3,22,22,0.2,0.8,0,0,0,1,0.335225105
77,1,23.6,Adult,1,C,1,3,23,23,0.2,0.8,0,1,0,1,0.383700848
77,1,23.6,Adult,1,C,1,3,24,24,0.2,0.8,0,1,0,1,0.318697929
77,1,23.6,Adult,1,C,1,3,25,25,0.2,0.8,0,0,0,1,0.318735123
77,1,23.6,Adult,1,C,1,3,26,26,0.2,0.8,0,1,0,1,0.285204172
77,1,23.6,Adult,1,C,1,3,27,27,0.2,0.8,0,1,0,1,0.318504095
77,1,23.6,Adult,1,C,1,3,28,28,0.2,0.8,1,1,1,0,0.368499994
77,1,23.6,Adult,1,C,1,3,29,29,0.2,0.8,0,0,1,1,0.45165801
77,1,23.6,Adult,1,C,1,3,30,30,0.2,0.8,0,0,0,1,0.351797819
77,1,23.6,Adult,1,C,1,3,31,31,0.2,0.8,1,0,0,0,0.451780081
77,1,23.6,Adult,1,C,1,3,32,32,0.2,0.8,0,1,0,1,0.301697016
77,1,23.6,Adult,1,C,1,3,33,33,0.2,0.8,0,1,0,1,0.268872976
77,1,23.6,Adult,1,C,1,3,34,34,0.2,0.8,1,0,0,0,0.518481016
77,1,23.6,Adult,1,C,1,3,35,35,0.2,0.8,0,1,1,1,0.335292101
77,1,23.6,Adult,1,C,1,3,36,36,0.2,0.8,0,0,0,1,0.385245085
77,1,23.6,Adult,1,C,1,3,37,37,0.2,0.8,0,1,0,1,0.401778936
77,1,23.6,Adult,1,C,1,3,38,38,0.2,0.8,0,1,0,1,0.55183816
77,1,23.6,Adult,1,C,1,3,39,39,0.2,0.8,1,0,0,0,0.418540001
77,1,23.6,Adult,1,C,1,3,40,40,0.2,0.8,0,0,0,1,0.318690062
77,1,23.6,Adult,1,C,1,3,41,41,0.2,0.8,0,0,1,1,0.383491039
77,1,23.6,Adult,1,C,1,3,42,42,0.2,0.8,1,0,0,0,0.351788044
77,1,23.6,Adult,1,C,1,3,43,43,0.2,0.8,0,1,0,1,0.28538394
77,1,23.6,Adult,1,C,1,3,44,44,0.2,0.8,0,1,0,1,0.285226822
77,1,23.6,Adult,1,C,1,3,45,45,0.2,0.8,0,0,1,1,0.335170031
77,1,23.6,Adult,1,C,1,3,46,46,0.2,0.8,0,1,0,1,0.384892225
77,1,23.6,Adult,1,C,1,3,47,47,0.2,0.8,0,1,1,1,0.385368824
77,1,23.6,Adult,1,C,1,3,48,48,0.2,0.8,0,1,0,1,0.334958076
77,1,23.6,Adult,1,C,1,3,49,49,0.2,0.8,0,0,1,1,0.318751097
77,1,23.6,Adult,1,C,1,3,50,50,0.2,0.8,0,0,0,1,0.501804113
77,1,23.6,Adult,1,C,2,1,51,1,0.8,0.2,1,0,0,1,2.034996033
77,1,23.6,Adult,1,C,2,1,52,2,0.8,0.2,0,0,1,0,0.301771164
77,1,23.6,Adult,1,C,2,1,53,3,0.8,0.2,1,1,0,1,0.435199976
77,1,23.6,Adult,1,C,2,1,54,4,0.8,0.2,1,1,0,1,1.968154907
77,1,23.6,Adult,1,C,2,1,55,5,0.8,0.2,1,1,0,1,0.385292053
77,1,23.6,Adult,1,C,2,1,56,6,0.8,0.2,1,0,1,1,0.335309029
77,1,23.6,Adult,1,C,2,1,57,7,0.8,0.2,1,1,0,1,0.301968098
77,1,23.6,Adult,1,C,2,1,58,8,0.8,0.2,1,0,1,1,0.335175037
77,1,23.6,Adult,1,C,2,1,59,9,0.8,0.2,1,1,0,1,0.30214715
77,1,23.6,Adult,1,C,2,1,60,10,0.8,0.2,1,1,0,1,0.285082102
77,1,23.6,Adult,1,C,2,1,61,11,0.8,0.2,1,0,1,1,0.318653822
77,1,23.6,Adult,1,C,2,1,62,12,0.8,0.2,1,1,0,1,0.351840019
77,1,23.6,Adult,1,C,2,1,63,13,0.8,0.2,1,1,0,1,0.285272837
77,1,23.6,Adult,1,C,2,1,64,14,0.8,0.2,1,1,0,1,0.266964197
77,1,23.6,Adult,1,C,2,1,65,15,0.8,0.2,1,1,0,1,0.385215998
77,1,23.6,Adult,1,C,2,1,66,16,0.8,0.2,0,0,0,0,0.901697159
77,1,23.6,Adult,1,C,2,1,67,17,0.8,0.2,1,0,1,1,0.251909971
77,1,23.6,Adult,1,C,2,1,68,18,0.8,0.2,1,1,0,1,0.302067995
77,1,23.6,Adult,1,C,2,1,69,19,0.8,0.2,1,0,1,1,0.301929951
77,1,23.6,Adult,1,C,2,1,70,20,0.8,0.2,0,0,0,0,0.601630926
77,1,23.6,Adult,1,C,2,1,71,21,0.8,0.2,1,0,1,1,0.302026033
77,1,23.6,Adult,1,C,2,1,72,22,0.8,0.2,1,1,0,1,0.285577059
77,1,23.6,Adult,1,C,2,1,73,23,0.8,0.2,1,1,0,1,0.235527992
77,1,23.6,Adult,1,C,2,1,74,24,0.8,0.2,1,1,0,1,0.251790047
77,1,23.6,Adult,1,C,2,1,75,25,0.8,0.2,1,0,1,1,0.28513217
77,1,23.6,Adult,1,C,2,1,76,26,0.8,0.2,1,1,0,1,0.266952991
77,1,23.6,Adult,1,C,2,1,77,27,0.8,0.2,1,1,0,1,0.252108097
77,1,23.6,Adult,1,C,2,1,78,28,0.8,0.2,1,0,1,1,0.568539143
77,1,23.6,Adult,1,C,2,1,79,29,0.8,0.2,1,1,0,1,0.285187006
77,1,23.6,Adult,1,C,2,1,80,30,0.8,0.2,1,0,1,1,0.266830921
77,1,23.6,Adult,1,C,2,1,81,31,0.8,0.2,1,1,0,1,0.251811981
77,1,23.6,Adult,1,C,2,1,82,32,0.8,0.2,1,1,0,1,0.283674955
77,1,23.6,Adult,1,C,2,1,83,33,0.8,0.2,1,1,0,1,0.301857948
77,1,23.6,Adult,1,C,2,1,84,34,0.8,0.2,1,0,1,1,0.401930094
77,1,23.6,Adult,1,C,2,1,85,35,0.8,0.2,1,0,0,1,0.252067089
77,1,23.6,Adult,1,C,2,1,86,36,0.8,0.2,1,1,0,1,0.268544912
77,1,23.6,Adult,1,C,2,1,87,37,0.8,0.2,1,0,0,1,0.21873188
77,1,23.6,Adult,1,C,2,1,88,38,0.8,0.2,1,1,0,1,0.251744986
77,1,23.6,Adult,1,C,2,1,89,39,0.8,0.2,1,0,1,1,0.451938152
77,1,23.6,Adult,1,C,2,1,90,40,0.8,0.2,1,0,0,1,0.285299778
77,1,23.6,Adult,1,C,2,1,91,41,0.8,0.2,0,0,0,0,0.401976824
77,1,23.6,Adult,1,C,2,1,92,42,0.8,0.2,1,0,1,1,0.302057028
77,1,23.6,Adult,1,C,2,1,93,43,0.8,0.2,1,0,0,1,0.266947985
77,1,23.6,Adult,1,C,2,1,94,44,0.8,0.2,0,0,0,0,0.251868963
77,1,23.6,Adult,1,C,2,1,95,45,0.8,0.2,1,1,0,1,0.285076857
77,1,23.6,Adult,1,C,2,1,96,46,0.8,0.2,1,0,1,1,0.385229826
77,1,23.6,Adult,1,C,2,1,97,47,0.8,0.2,1,0,0,1,0.385200977
77,1,23.6,Adult,1,C,2,1,98,48,0.8,0.2,0,0,0,0,0.268651009
77,1,23.6,Adult,1,C,2,1,99,49,0.8,0.2,1,1,0,1,0.368740082
77,1,23.6,Adult,1,C,2,1,100,50,0.8,0.2,1,0,1,1,0.268532991
77,1,23.6,Adult,1,C,3,2,101,1,0.8,0.2,0,0,0,0,1.551435947
77,1,23.6,Adult,1,C,3,2,102,2,0.8,0.2,1,1,0,1,0.251991034
77,1,23.6,Adult,1,C,3,2,103,3,0.8,0.2,1,1,0,1,0.268697023
77,1,23.6,Adult,1,C,3,2,104,4,0.8,0.2,1,1,1,1,0.268648148
77,1,23.6,Adult,1,C,3,2,105,5,0.8,0.2,1,1,0,1,0.452067137
77,1,23.6,Adult,1,C,3,2,106,6,0.8,0.2,1,0,0,1,0.335366964
77,1,23.6,Adult,1,C,3,2,107,7,0.8,0.2,1,1,0,1,0.268498898
77,1,23.6,Adult,1,C,3,2,108,8,0.8,0.2,1,1,0,1,0.235184908
77,1,23.6,Adult,1,C,3,2,109,9,0.8,0.2,1,1,0,1,0.267062902
77,1,23.6,Adult,1,C,3,2,110,10,0.8,0.2,0,1,1,0,0.28513813
77,1,23.6,Adult,1,C,3,2,111,11,0.8,0.2,1,1,1,1,0.30199194
77,1,23.6,Adult,1,C,3,2,112,12,0.8,0.2,0,1,0,0,0.385426044
77,1,23.6,Adult,1,C,3,2,113,13,0.8,0.2,0,0,0,0,0.302020073
77,1,23.6,Adult,1,C,3,2,114,14,0.8,0.2,1,1,0,1,0.252040148
77,1,23.6,Adult,1,C,3,2,115,15,0.8,0.2,1,1,0,1,0.285115957
77,1,23.6,Adult,1,C,3,2,116,16,0.8,0.2,1,1,1,1,0.251852989
77,1,23.6,Adult,1,C,3,2,117,17,0.8,0.2,0,0,0,0,0.35206008
77,1,23.6,Adult,1,C,3,2,118,18,0.8,0.2,1,1,0,1,0.251734972
77,1,23.6,Adult,1,C,3,2,119,19,0.8,0.2,1,1,1,1,0.252093077
77,1,23.6,Adult,1,C,3,2,120,20,0.8,0.2,1,1,0,1,0.285119057
77,1,23.6,Adult,1,C,3,2,121,21,0.8,0.2,1,1,0,1,0.468412161
77,1,23.6,Adult,1,C,3,2,122,22,0.8,0.2,1,1,0,1,0.218438864
77,1,23.6,Adult,1,C,3,2,123,23,0.8,0.2,1,0,0,1,0.251905918
77,1,23.6,Adult,1,C,3,2,124,24,0.8,0.2,1,1,1,1,0.268540859
77,1,23.6,Adult,1,C,3,2,125,25,0.8,0.2,1,1,0,1,0.268400908
77,1,23.6,Adult,1,C,3,2,126,26,0.8,0.2,1,1,0,1,0.252023935
77,1,23.6,Adult,1,C,3,2,127,27,0.8,0.2,1,1,0,1,0.235291958
77,1,23.6,Adult,1,C,3,2,128,28,0.8,0.2,1,1,0,1,0.268486977
77,1,23.6,Adult,1,C,3,2,129,29,0.8,0.2,1,1,1,1,0.30195117
77,1,23.6,Adult,1,C,3,2,130,30,0.8,0.2,1,1,0,1,0.251909971
77,1,23.6,Adult,1,C,3,2,131,31,0.8,0.2,1,0,0,1,0.601680994
77,1,23.6,Adult,1,C,3,2,132,32,0.8,0.2,1,1,0,1,0.268697023
77,1,23.6,Adult,1,C,3,2,133,33,0.8,0.2,1,1,0,1,0.218593836
77,1,23.6,Adult,1,C,3,2,134,34,0.8,0.2,1,1,1,1,1.601520061
77,1,23.6,Adult,1,C,3,2,135,35,0.8,0.2,1,1,0,1,0.485404968
77,1,23.6,Adult,1,C,3,2,136,36,0.8,0.2,1,1,0,1,0.251976967
77,1,23.6,Adult,1,C,3,2,137,37,0.8,0.2,1,1,0,1,0.451782942
77,1,23.6,Adult,1,C,3,2,138,38,0.8,0.2,1,1,1,1,0.268552065
77,1,23.6,Adult,1,C,3,2,139,39,0.8,0.2,1,1,0,1,0.285246849
77,1,23.6,Adult,1,C,3,2,140,40,0.8,0.2,1,1,0,1,0.301846981
77,1,23.6,Adult,1,C,3,2,141,41,0.8,0.2,1,1,0,1,0.25193119
77,1,23.6,Adult,1,C,3,2,142,42,0.8,0.2,1,1,0,1,0.268583059
77,1,23.6,Adult,1,C,3,2,143,43,0.8,0.2,1,0,0,1,0.235374928
77,1,23.6,Adult,1,C,3,2,144,44,0.8,0.2,0,0,0,0,0.368808031
77,1,23.6,Adult,1,C,3,2,145,45,0.8,0.2,1,1,0,1,0.285106897
77,1,23.6,Adult,1,C,3,2,146,46,0.8,0.2,1,1,1,1,0.235375881
77,1,23.6,Adult,1,C,3,2,147,47,0.8,0.2,1,1,0,1,0.402004957
77,1,23.6,Adult,1,C,3,2,148,48,0.8,0.2,1,0,0,1,0.201789141
77,1,23.6,Adult,1,C,3,2,149,49,0.8,0.2,1,1,0,1,0.318593025
77,1,23.6,Adult,1,C,3,2,150,50,0.8,0.2,1,1,1,1,0.285488129
70,1,11.73055556,Kid,1,E,1,2,1,1,0.2,0.8,0,1,0,1,2.384643078
70,1,11.73055556,Kid,1,E,1,2,2,2,0.2,0.8,0,1,0,1,0.685136795
70,1,11.73055556,Kid,1,E,1,2,3,3,0.2,0.8,0,1,0,1,0.468436956
70,1,11.73055556,Kid,1,E,1,2,4,4,0.2,0.8,0,1,1,1,0.385390997
70,1,11.73055556,Kid,1,E,1,2,5,5,0.2,0.8,0,1,1,1,0.56856513
70,1,11.73055556,Kid,1,E,1,2,6,6,0.2,0.8,0,1,1,1,0.41837883
70,1,11.73055556,Kid,1,E,1,2,7,7,0.2,0.8,0,1,1,1,0.418509007
70,1,11.73055556,Kid,1,E,1,2,8,8,0.2,0.8,0,1,1,1,0.55201602
70,1,11.73055556,Kid,1,E,1,2,9,9,0.2,0.8,0,1,1,1,0.4517138
70,1,11.73055556,Kid,1,E,1,2,10,10,0.2,0.8,0,1,1,1,0.701693058
70,1,11.73055556,Kid,1,E,1,2,11,11,0.2,0.8,0,0,0,1,0.468533039
70,1,11.73055556,Kid,1,E,1,2,12,12,0.2,0.8,0,1,1,1,0.48524785
70,1,11.73055556,Kid,1,E,1,2,13,13,0.2,0.8,0,1,1,1,0.566707134
70,1,11.73055556,Kid,1,E,1,2,14,14,0.2,0.8,0,0,0,1,0.418612957
70,1,11.73055556,Kid,1,E,1,2,15,15,0.2,0.8,1,0,0,0,1.184824228
70,1,11.73055556,Kid,1,E,1,2,16,16,0.2,0.8,0,1,1,1,0.43520689
70,1,11.73055556,Kid,1,E,1,2,17,17,0.2,0.8,0,1,1,1,1.201663017
70,1,11.73055556,Kid,1,E,1,2,18,18,0.2,0.8,0,0,0,1,1.18336606
70,1,11.73055556,Kid,1,E,1,2,19,19,0.2,0.8,0,1,0,1,0.568465948
70,1,11.73055556,Kid,1,E,1,2,20,20,0.2,0.8,0,0,0,1,1.101701021
70,1,11.73055556,Kid,1,E,1,2,21,21,0.2,0.8,0,1,0,1,0.651674986
70,1,11.73055556,Kid,1,E,1,2,22,22,0.2,0.8,0,1,0,1,0.485198975
70,1,11.73055556,Kid,1,E,1,2,23,23,0.2,0.8,0,1,1,1,1.201639891
70,1,11.73055556,Kid,1,E,1,2,24,24,0.2,0.8,0,1,1,1,1.135010958
70,1,11.73055556,Kid,1,E,1,2,25,25,0.2,0.8,0,1,1,1,0.851604939
70,1,11.73055556,Kid,1,E,1,2,26,26,0.2,0.8,0,0,1,1,0.585071087
70,1,11.73055556,Kid,1,E,1,2,27,27,0.2,0.8,0,0,0,1,0.901510954
70,1,11.73055556,Kid,1,E,1,2,28,28,0.2,0.8,0,1,0,1,0.450088024
70,1,11.73055556,Kid,1,E,1,2,29,29,0.2,0.8,0,1,0,1,0.535032034
70,1,11.73055556,Kid,1,E,1,2,30,30,0.2,0.8,0,1,0,1,0.985039949
70,1,11.73055556,Kid,1,E,1,2,31,31,0.2,0.8,0,1,0,1,0.418581963
70,1,11.73055556,Kid,1,E,1,2,32,32,0.2,0.8,0,1,1,1,0.351902008
70,1,11.73055556,Kid,1,E,1,2,33,33,0.2,0.8,0,1,0,1,0.635213137
70,1,11.73055556,Kid,1,E,1,2,34,34,0.2,0.8,0,1,0,1,0.48505497
70,1,11.73055556,Kid,1,E,1,2,35,35,0.2,0.8,0,1,1,1,0.385300875
70,1,11.73055556,Kid,1,E,1,2,36,36,0.2,0.8,0,1,1,1,1.084877968
70,1,11.73055556,Kid,1,E,1,2,37,37,0.2,0.8,0,1,1,1,0.718283892
70,1,11.73055556,Kid,1,E,1,2,38,38,0.2,0.8,0,1,1,1,1.101464033
70,1,11.73055556,Kid,1,E,1,2,39,39,0.2,0.8,0,1,1,1,1.38488102
70,1,11.73055556,Kid,1,E,1,2,40,40,0.2,0.8,0,1,0,1,1.334916115
70,1,11.73055556,Kid,1,E,1,2,41,41,0.2,0.8,0,1,1,1,0.985026836
70,1,11.73055556,Kid,1,E,1,2,42,42,0.2,0.8,0,1,0,1,1.568286181
70,1,11.73055556,Kid,1,E,1,2,43,43,0.2,0.8,0,1,0,1,0.601889133
70,1,11.73055556,Kid,1,E,1,2,44,44,0.2,0.8,0,1,0,1,0.535286903
70,1,11.73055556,Kid,1,E,1,2,45,45,0.2,0.8,0,1,0,1,0.601828098
70,1,11.73055556,Kid,1,E,1,2,46,46,0.2,0.8,0,1,0,1,0.734978914
70,1,11.73055556,Kid,1,E,1,2,47,47,0.2,0.8,0,1,0,1,1.285002947
70,1,11.73055556,Kid,1,E,1,2,48,48,0.2,0.8,0,1,1,1,0.468538046
70,1,11.73055556,Kid,1,E,1,2,49,49,0.2,0.8,0,1,1,1,0.485331059
70,1,11.73055556,Kid,1,E,1,2,50,50,0.2,0.8,0,1,1,1,1.251610994
70,1,11.73055556,Kid,1,E,2,1,51,1,0.2,0.8,1,0,0,0,2.634475946
70,1,11.73055556,Kid,1,E,2,1,52,2,0.2,0.8,0,1,0,1,0.766858101
70,1,11.73055556,Kid,1,E,2,1,53,3,0.2,0.8,0,1,0,1,0.435281992
70,1,11.73055556,Kid,1,E,2,1,54,4,0.2,0.8,0,0,0,1,0.451982975
70,1,11.73055556,Kid,1,E,2,1,55,5,0.2,0.8,0,1,0,1,0.401913881
70,1,11.73055556,Kid,1,E,2,1,56,6,0.2,0.8,0,0,0,1,0.634879112
70,1,11.73055556,Kid,1,E,2,1,57,7,0.2,0.8,0,1,0,1,0.418735981
70,1,11.73055556,Kid,1,E,2,1,58,8,0.2,0.8,0,0,0,1,0.45182991
70,1,11.73055556,Kid,1,E,2,1,59,9,0.2,0.8,0,1,0,1,0.818462849
70,1,11.73055556,Kid,1,E,2,1,60,10,0.2,0.8,0,0,0,1,0.60175705
70,1,11.73055556,Kid,1,E,2,1,61,11,0.2,0.8,0,1,0,1,0.418546915
70,1,11.73055556,Kid,1,E,2,1,62,12,0.2,0.8,0,1,0,1,1.183361053
70,1,11.73055556,Kid,1,E,2,1,63,13,0.2,0.8,0,0,0,1,0.685153961
70,1,11.73055556,Kid,1,E,2,1,64,14,0.2,0.8,0,0,0,1,0.41849184
70,1,11.73055556,Kid,1,E,2,1,65,15,0.2,0.8,0,1,0,1,0.552056074
70,1,11.73055556,Kid,1,E,2,1,66,16,0.2,0.8,0,0,0,1,0.785002947
70,1,11.73055556,Kid,1,E,2,1,67,17,0.2,0.8,1,0,0,0,0.618586063
70,1,11.73055556,Kid,1,E,2,1,68,18,0.2,0.8,1,0,0,0,0.585381985
70,1,11.73055556,Kid,1,E,2,1,69,19,0.2,0.8,0,1,0,1,0.435272932
70,1,11.73055556,Kid,1,E,2,1,70,20,0.2,0.8,0,0,1,1,0.518232107
70,1,11.73055556,Kid,1,E,2,1,71,21,0.2,0.8,0,1,1,1,0.701914072
70,1,11.73055556,Kid,1,E,2,1,72,22,0.2,0.8,0,0,1,1,0.551803827
70,1,11.73055556,Kid,1,E,2,1,73,23,0.2,0.8,0,0,1,1,0.56852603
70,1,11.73055556,Kid,1,E,2,1,74,24,0.2,0.8,0,0,1,1,0.368587971
70,1,11.73055556,Kid,1,E,2,1,75,25,0.2,0.8,0,1,0,1,0.335125923
70,1,11.73055556,Kid,1,E,2,1,76,26,0.2,0.8,0,0,0,1,0.43513608
70,1,11.73055556,Kid,1,E,2,1,77,27,0.2,0.8,0,1,0,1,1.184836864
70,1,11.73055556,Kid,1,E,2,1,78,28,0.2,0.8,0,1,0,1,0.485198975
70,1,11.73055556,Kid,1,E,2,1,79,29,0.2,0.8,0,0,1,1,0.48506999
70,1,11.73055556,Kid,1,E,2,1,80,30,0.2,0.8,0,0,1,1,0.335119963
70,1,11.73055556,Kid,1,E,2,1,81,31,0.2,0.8,0,0,0,1,0.685130119
70,1,11.73055556,Kid,1,E,2,1,82,32,0.2,0.8,0,1,0,1,0.735053062
70,1,11.73055556,Kid,1,E,2,1,83,33,0.2,0.8,0,0,0,1,1.601600885
70,1,11.73055556,Kid,1,E,2,1,84,34,0.2,0.8,0,1,0,1,1.201591015
70,1,11.73055556,Kid,1,E,2,1,85,35,0.2,0.8,0,0,0,1,1.21804595
70,1,11.73055556,Kid,1,E,2,1,86,36,0.2,0.8,0,1,0,1,0.451815844
70,1,11.73055556,Kid,1,E,2,1,87,37,0.2,0.8,0,1,0,1,0.551851988
70,1,11.73055556,Kid,1,E,2,1,88,38,0.2,0.8,0,1,0,1,0.668541908
70,1,11.73055556,Kid,1,E,2,1,89,39,0.2,0.8,0,1,0,1,1.20147109
70,1,11.73055556,Kid,1,E,2,1,90,40,0.2,0.8,0,0,1,1,1.301613092
70,1,11.73055556,Kid,1,E,2,1,91,41,0.2,0.8,0,1,0,1,1.418329954
70,1,11.73055556,Kid,1,E,2,1,92,42,0.2,0.8,0,1,0,1,2.484870911
70,1,11.73055556,Kid,1,E,2,1,93,43,0.2,0.8,0,1,0,1,4.867419004
70,1,11.73055556,Kid,1,E,2,1,94,44,0.2,0.8,0,0,1,1,3.617416143
70,1,11.73055556,Kid,1,E,2,1,95,45,0.2,0.8,0,0,0,1,1.984793186
70,1,11.73055556,Kid,1,E,2,1,96,46,0.2,0.8,0,0,0,1,1.801970959
70,1,11.73055556,Kid,1,E,2,1,97,47,0.2,0.8,0,1,0,1,1.533289194
70,1,11.73055556,Kid,1,E,2,1,98,48,0.2,0.8,0,1,0,1,0.535337925
70,1,11.73055556,Kid,1,E,2,1,99,49,0.2,0.8,0,0,1,1,0.535195827
70,1,11.73055556,Kid,1,E,2,1,100,50,0.2,0.8,0,0,1,1,1.351596117
70,1,11.73055556,Kid,1,E,3,3,101,1,0.2,0.8,1,0,0,0,3.167811155
70,1,11.73055556,Kid,1,E,3,3,102,2,0.2,0.8,1,1,0,0,0.435142994
70,1,11.73055556,Kid,1,E,3,3,103,3,0.2,0.8,1,1,0,0,0.435219049
70,1,11.73055556,Kid,1,E,3,3,104,4,0.2,0.8,1,0,1,0,0.58494997
70,1,11.73055556,Kid,1,E,3,3,105,5,0.2,0.8,1,0,0,0,0.468772173
70,1,11.73055556,Kid,1,E,3,3,106,6,0.2,0.8,0,1,0,1,0.818548918
70,1,11.73055556,Kid,1,E,3,3,107,7,0.2,0.8,0,1,0,1,1.234961033
70,1,11.73055556,Kid,1,E,3,3,108,8,0.2,0.8,0,1,0,1,0.985015869
70,1,11.73055556,Kid,1,E,3,3,109,9,0.2,0.8,0,1,1,1,0.601754904
70,1,11.73055556,Kid,1,E,3,3,110,10,0.2,0.8,0,1,0,1,0.501966
70,1,11.73055556,Kid,1,E,3,3,111,11,0.2,0.8,0,1,0,1,2.051405191
70,1,11.73055556,Kid,1,E,3,3,112,12,0.2,0.8,0,1,0,1,2.949492931
70,1,11.73055556,Kid,1,E,3,3,113,13,0.2,0.8,0,1,0,1,0.701876879
70,1,11.73055556,Kid,1,E,3,3,114,14,0.2,0.8,0,0,0,1,0.468490839
70,1,11.73055556,Kid,1,E,3,3,115,15,0.2,0.8,0,1,1,1,0.451970816
70,1,11.73055556,Kid,1,E,3,3,116,16,0.2,0.8,0,0,0,1,0.618618011
70,1,11.73055556,Kid,1,E,3,3,117,17,0.2,0.8,0,0,0,1,0.435275078
70,1,11.73055556,Kid,1,E,3,3,118,18,0.2,0.8,0,1,0,1,0.518237829
70,1,11.73055556,Kid,1,E,3,3,119,19,0.2,0.8,0,1,0,1,0.385202885
70,1,11.73055556,Kid,1,E,3,3,120,20,0.2,0.8,0,0,0,1,0.851762056
70,1,11.73055556,Kid,1,E,3,3,121,21,0.2,0.8,0,1,0,1,0.451737165
70,1,11.73055556,Kid,1,E,3,3,122,22,0.2,0.8,0,0,1,1,0.668637991
70,1,11.73055556,Kid,1,E,3,3,123,23,0.2,0.8,0,0,1,1,2.351444006
70,1,11.73055556,Kid,1,E,3,3,124,24,0.2,0.8,0,1,0,1,1.018166065
70,1,11.73055556,Kid,1,E,3,3,125,25,0.2,0.8,0,0,1,1,1.668054104
70,1,11.73055556,Kid,1,E,3,3,126,26,0.2,0.8,0,1,0,1,2.401403904
70,1,11.73055556,Kid,1,E,3,3,127,27,0.2,0.8,0,1,0,1,1.751530886
70,1,11.73055556,Kid,1,E,3,3,128,28,0.2,0.8,0,0,0,1,1.968060017
70,1,11.73055556,Kid,1,E,3,3,129,29,0.2,0.8,0,1,0,1,1.085011959
70,1,11.73055556,Kid,1,E,3,3,130,30,0.2,0.8,0,1,0,1,2.001328945
70,1,11.73055556,Kid,1,E,3,3,131,31,0.2,0.8,0,1,0,1,1.61819315
70,1,11.73055556,Kid,1,E,3,3,132,32,0.2,0.8,0,0,0,1,1.051784039
70,1,11.73055556,Kid,1,E,3,3,133,33,0.2,0.8,0,1,0,1,0.451871157
70,1,11.73055556,Kid,1,E,3,3,134,34,0.2,0.8,0,1,0,1,0.501989126
70,1,11.73055556,Kid,1,E,3,3,135,35,0.2,0.8,0,0,0,1,0.668502808
70,1,11.73055556,Kid,1,E,3,3,136,36,0.2,0.8,0,1,0,1,0.901713848
70,1,11.73055556,Kid,1,E,3,3,137,37,0.2,0.8,0,1,0,1,1.118106127
70,1,11.73055556,Kid,1,E,3,3,138,38,0.2,0.8,0,1,0,1,1.567994118
70,1,11.73055556,Kid,1,E,3,3,139,39,0.2,0.8,0,1,0,1,0.885066986
70,1,11.73055556,Kid,1,E,3,3,140,40,0.2,0.8,0,1,0,1,0.485225916
70,1,11.73055556,Kid,1,E,3,3,141,41,0.2,0.8,0,1,1,1,0.468508005
70,1,11.73055556,Kid,1,E,3,3,142,42,0.2,0.8,0,0,0,1,3.116235971
70,1,11.73055556,Kid,1,E,3,3,143,43,0.2,0.8,0,1,0,1,0.401661873
70,1,11.73055556,Kid,1,E,3,3,144,44,0.2,0.8,0,1,0,1,1.285158873
70,1,11.73055556,Kid,1,E,3,3,145,45,0.2,0.8,0,0,0,1,1.185039043
70,1,11.73055556,Kid,1,E,3,3,146,46,0.2,0.8,0,1,0,1,0.651963949
70,1,11.73055556,Kid,1,E,3,3,147,47,0.2,0.8,0,1,0,1,1.285037994
70,1,11.73055556,Kid,1,E,3,3,148,48,0.2,0.8,0,1,0,1,0.851877928
70,1,11.73055556,Kid,1,E,3,3,149,49,0.2,0.8,0,1,0,1,1.601534128
70,1,11.73055556,Kid,1,E,3,3,150,50,0.2,0.8,0,1,0,1,0.751861095
100,1,16.16388889,Teen,0,F,1,3,1,1,0.2,0.8,1,0,0,0,0.968547106
100,1,16.16388889,Teen,0,F,1,3,2,2,0.2,0.8,1,0,0,0,0.368532896
100,1,16.16388889,Teen,0,F,1,3,3,3,0.2,0.8,0,0,0,1,1.284849167
100,1,16.16388889,Teen,0,F,1,3,4,4,0.2,0.8,0,1,0,1,1.768172979
100,1,16.16388889,Teen,0,F,1,3,5,5,0.2,0.8,0,1,0,1,0.318555832
100,1,16.16388889,Teen,0,F,1,3,6,6,0.2,0.8,0,1,0,1,0.235498905
100,1,16.16388889,Teen,0,F,1,3,7,7,0.2,0.8,0,1,0,1,0.268623829
100,1,16.16388889,Teen,0,F,1,3,8,8,0.2,0.8,0,1,0,1,0.218400002
100,1,16.16388889,Teen,0,F,1,3,9,9,0.2,0.8,0,1,0,1,0.335199833
100,1,16.16388889,Teen,0,F,1,3,10,10,0.2,0.8,0,0,0,1,0.435247898
100,1,16.16388889,Teen,0,F,1,3,11,11,0.2,0.8,0,1,0,1,0.252084017
100,1,16.16388889,Teen,0,F,1,3,12,12,0.2,0.8,0,1,0,1,0.385102987
100,1,16.16388889,Teen,0,F,1,3,13,13,0.2,0.8,0,1,0,1,0.402024031
100,1,16.16388889,Teen,0,F,1,3,14,14,0.2,0.8,0,1,0,1,0.28549695
100,1,16.16388889,Teen,0,F,1,3,15,15,0.2,0.8,0,1,0,1,0.185331821
100,1,16.16388889,Teen,0,F,1,3,16,16,0.2,0.8,0,0,0,1,0.285001993
100,1,16.16388889,Teen,0,F,1,3,17,17,0.2,0.8,0,1,0,1,0.202101946
100,1,16.16388889,Teen,0,F,1,3,18,18,0.2,0.8,0,1,0,1,0.418483019
100,1,16.16388889,Teen,0,F,1,3,19,19,0.2,0.8,0,0,0,1,0.268718004
100,1,16.16388889,Teen,0,F,1,3,20,20,0.2,0.8,0,0,1,1,0.335365057
100,1,16.16388889,Teen,0,F,1,3,21,21,0.2,0.8,0,0,1,1,0.351769924
100,1,16.16388889,Teen,0,F,1,3,22,22,0.2,0.8,0,1,0,1,0.251806974
100,1,16.16388889,Teen,0,F,1,3,23,23,0.2,0.8,0,1,0,1,0.351851225
100,1,16.16388889,Teen,0,F,1,3,24,24,0.2,0.8,0,1,0,1,0.202255011
100,1,16.16388889,Teen,0,F,1,3,25,25,0.2,0.8,0,1,0,1,0.385053873
100,1,16.16388889,Teen,0,F,1,3,26,26,0.2,0.8,0,1,0,1,0.368621111
100,1,16.16388889,Teen,0,F,1,3,27,27,0.2,0.8,0,1,0,1,0.401870012
100,1,16.16388889,Teen,0,F,1,3,28,28,0.2,0.8,0,1,0,1,0.50187397
100,1,16.16388889,Teen,0,F,1,3,29,29,0.2,0.8,0,0,0,1,0.202072859
100,1,16.16388889,Teen,0,F,1,3,30,30,0.2,0.8,0,1,0,1,0.302256107
100,1,16.16388889,Teen,0,F,1,3,31,31,0.2,0.8,0,1,0,1,0.216898918
100,1,16.16388889,Teen,0,F,1,3,32,32,0.2,0.8,0,0,0,1,0.368466139
100,1,16.16388889,Teen,0,F,1,3,33,33,0.2,0.8,0,1,0,1,0.268505096
100,1,16.16388889,Teen,0,F,1,3,34,34,0.2,0.8,0,1,0,1,0.235625029
100,1,16.16388889,Teen,0,F,1,3,35,35,0.2,0.8,0,1,0,1,0.251636028
100,1,16.16388889,Teen,0,F,1,3,36,36,0.2,0.8,0,1,0,1,0.352165937
100,1,16.16388889,Teen,0,F,1,3,37,37,0.2,0.8,0,1,0,1,0.335370064
100,1,16.16388889,Teen,0,F,1,3,38,38,0.2,0.8,0,1,0,1,0.418648958
100,1,16.16388889,Teen,0,F,1,3,39,39,0.2,0.8,0,0,0,1,0.252089024
100,1,16.16388889,Teen,0,F,1,3,40,40,0.2,0.8,0,1,0,1,0.235269785
100,1,16.16388889,Teen,0,F,1,3,41,41,0.2,0.8,0,0,0,1,0.318433046
100,1,16.16388889,Teen,0,F,1,3,42,42,0.2,0.8,0,0,1,1,1.268398046
100,1,16.16388889,Teen,0,F,1,3,43,43,0.2,0.8,0,1,0,1,0.285326958
100,1,16.16388889,Teen,0,F,1,3,44,44,0.2,0.8,0,1,0,1,0.268639088
100,1,16.16388889,Teen,0,F,1,3,45,45,0.2,0.8,0,0,1,1,0.251909971
100,1,16.16388889,Teen,0,F,1,3,46,46,0.2,0.8,0,1,0,1,0.401839018
100,1,16.16388889,Teen,0,F,1,3,47,47,0.2,0.8,0,1,0,1,0.31870985
100,1,16.16388889,Teen,0,F,1,3,48,48,0.2,0.8,0,1,0,1,0.335371017
100,1,16.16388889,Teen,0,F,1,3,49,49,0.2,0.8,0,1,0,1,0.701997042
100,1,16.16388889,Teen,0,F,1,3,50,50,0.2,0.8,0,0,0,1,0.251813889
100,1,16.16388889,Teen,0,F,2,2,51,1,0.2,0.8,1,0,0,0,1.484823942
100,1,16.16388889,Teen,0,F,2,2,52,2,0.2,0.8,1,1,0,0,0.401854038
100,1,16.16388889,Teen,0,F,2,2,53,3,0.2,0.8,1,1,0,0,0.668347836
100,1,16.16388889,Teen,0,F,2,2,54,4,0.2,0.8,1,0,0,0,0.252130985
100,1,16.16388889,Teen,0,F,2,2,55,5,0.2,0.8,0,1,0,1,1.784635067
100,1,16.16388889,Teen,0,F,2,2,56,6,0.2,0.8,0,1,0,1,0.285358906
100,1,16.16388889,Teen,0,F,2,2,57,7,0.2,0.8,0,1,0,1,0.268529177
100,1,16.16388889,Teen,0,F,2,2,58,8,0.2,0.8,0,1,0,1,0.201948166
100,1,16.16388889,Teen,0,F,2,2,59,9,0.2,0.8,0,0,0,1,0.202035189
100,1,16.16388889,Teen,0,F,2,2,60,10,0.2,0.8,0,1,0,1,0.351856947
100,1,16.16388889,Teen,0,F,2,2,61,11,0.2,0.8,0,1,0,1,0.468640089
100,1,16.16388889,Teen,0,F,2,2,62,12,0.2,0.8,0,0,0,1,0.33532095
100,1,16.16388889,Teen,0,F,2,2,63,13,0.2,0.8,1,0,0,0,1.684911013
100,1,16.16388889,Teen,0,F,2,2,64,14,0.2,0.8,0,1,0,1,0.318635941
100,1,16.16388889,Teen,0,F,2,2,65,15,0.2,0.8,0,1,0,1,0.318547964
100,1,16.16388889,Teen,0,F,2,2,66,16,0.2,0.8,0,0,0,1,0.235077143
100,1,16.16388889,Teen,0,F,2,2,67,17,0.2,0.8,0,1,0,1,0.718626022
100,1,16.16388889,Teen,0,F,2,2,68,18,0.2,0.8,0,1,0,1,0.318754911
100,1,16.16388889,Teen,0,F,2,2,69,19,0.2,0.8,0,1,0,1,0.218590975
100,1,16.16388889,Teen,0,F,2,2,70,20,0.2,0.8,0,0,0,1,0.483403921
100,1,16.16388889,Teen,0,F,2,2,71,21,0.2,0.8,1,1,0,0,0.26857996
100,1,16.16388889,Teen,0,F,2,2,72,22,0.2,0.8,1,1,0,0,0.268529892
100,1,16.16388889,Teen,0,F,2,2,73,23,0.2,0.8,1,1,0,0,0.251960993
100,1,16.16388889,Teen,0,F,2,2,74,24,0.2,0.8,1,0,0,0,0.28555584
100,1,16.16388889,Teen,0,F,2,2,75,25,0.2,0.8,1,0,0,0,0.235419035
100,1,16.16388889,Teen,0,F,2,2,76,26,0.2,0.8,1,0,0,0,0.851516008
100,1,16.16388889,Teen,0,F,2,2,77,27,0.2,0.8,0,1,0,1,0.235264063
100,1,16.16388889,Teen,0,F,2,2,78,28,0.2,0.8,0,1,0,1,0.202001095
100,1,16.16388889,Teen,0,F,2,2,79,29,0.2,0.8,0,1,0,1,0.318510056
100,1,16.16388889,Teen,0,F,2,2,80,30,0.2,0.8,0,1,0,1,0.235141993
100,1,16.16388889,Teen,0,F,2,2,81,31,0.2,0.8,0,0,0,1,0.20205617
100,1,16.16388889,Teen,0,F,2,2,82,32,0.2,0.8,0,1,0,1,0.285369158
100,1,16.16388889,Teen,0,F,2,2,83,33,0.2,0.8,0,1,0,1,1.08501792
100,1,16.16388889,Teen,0,F,2,2,84,34,0.2,0.8,0,1,0,1,0.301955938
100,1,16.16388889,Teen,0,F,2,2,85,35,0.2,0.8,0,1,0,1,0.251905918
100,1,16.16388889,Teen,0,F,2,2,86,36,0.2,0.8,0,1,0,1,0.400140047
100,1,16.16388889,Teen,0,F,2,2,87,37,0.2,0.8,0,1,0,1,0.35208106
100,1,16.16388889,Teen,0,F,2,2,88,38,0.2,0.8,0,1,0,1,0.318763018
100,1,16.16388889,Teen,0,F,2,2,89,39,0.2,0.8,0,1,0,1,0.268752813
100,1,16.16388889,Teen,0,F,2,2,90,40,0.2,0.8,0,1,0,1,0.168594122
100,1,16.16388889,Teen,0,F,2,2,91,41,0.2,0.8,0,1,0,1,0.185182095
100,1,16.16388889,Teen,0,F,2,2,92,42,0.2,0.8,0,1,0,1,0.302174091
100,1,16.16388889,Teen,0,F,2,2,93,43,0.2,0.8,0,1,0,1,0.218603134
100,1,16.16388889,Teen,0,F,2,2,94,44,0.2,0.8,0,1,0,1,0.20183301
100,1,16.16388889,Teen,0,F,2,2,95,45,0.2,0.8,0,0,0,1,0.218749046
100,1,16.16388889,Teen,0,F,2,2,96,46,0.2,0.8,0,1,0,1,0.235321045
100,1,16.16388889,Teen,0,F,2,2,97,47,0.2,0.8,0,1,0,1,0.418614149
100,1,16.16388889,Teen,0,F,2,2,98,48,0.2,0.8,0,1,0,1,0.268553972
100,1,16.16388889,Teen,0,F,2,2,99,49,0.2,0.8,0,0,0,1,0.318381071
100,1,16.16388889,Teen,0,F,2,2,100,50,0.2,0.8,0,1,0,1,0.218867064
100,1,16.16388889,Teen,0,F,3,1,101,1,0.8,0.2,1,1,0,1,1.368246078
100,1,16.16388889,Teen,0,F,3,1,102,2,0.8,0.2,1,1,0,1,0.368716002
100,1,16.16388889,Teen,0,F,3,1,103,3,0.8,0.2,1,1,0,1,0.269057989
100,1,16.16388889,Teen,0,F,3,1,104,4,0.8,0.2,1,0,0,1,0.218576908
100,1,16.16388889,Teen,0,F,3,1,105,5,0.8,0.2,1,0,1,1,0.266834021
100,1,16.16388889,Teen,0,F,3,1,106,6,0.8,0.2,1,1,0,1,0.934916019
100,1,16.16388889,Teen,0,F,3,1,107,7,0.8,0.2,1,0,0,1,0.58522296
100,1,16.16388889,Teen,0,F,3,1,108,8,0.8,0.2,1,0,1,1,0.285310984
100,1,16.16388889,Teen,0,F,3,1,109,9,0.8,0.2,1,1,0,1,0.268841028
100,1,16.16388889,Teen,0,F,3,1,110,10,0.8,0.2,1,1,0,1,0.252076864
100,1,16.16388889,Teen,0,F,3,1,111,11,0.8,0.2,1,1,0,1,0.218730927
100,1,16.16388889,Teen,0,F,3,1,112,12,0.8,0.2,1,1,0,1,0.235293865
100,1,16.16388889,Teen,0,F,3,1,113,13,0.8,0.2,1,0,0,1,0.2685709
100,1,16.16388889,Teen,0,F,3,1,114,14,0.8,0.2,1,1,0,1,0.21875
100,1,16.16388889,Teen,0,F,3,1,115,15,0.8,0.2,1,0,0,1,0.235274076
100,1,16.16388889,Teen,0,F,3,1,116,16,0.8,0.2,1,0,1,1,0.235172987
100,1,16.16388889,Teen,0,F,3,1,117,17,0.8,0.2,1,0,1,1,0.235323906
100,1,16.16388889,Teen,0,F,3,1,118,18,0.8,0.2,1,1,0,1,0.351805925
100,1,16.16388889,Teen,0,F,3,1,119,19,0.8,0.2,1,1,0,1,0.352303028
100,1,16.16388889,Teen,0,F,3,1,120,20,0.8,0.2,1,1,0,1,0.566797018
100,1,16.16388889,Teen,0,F,3,1,121,21,0.8,0.2,1,1,0,1,0.368690968
100,1,16.16388889,Teen,0,F,3,1,122,22,0.8,0.2,1,1,0,1,1.784790039
100,1,16.16388889,Teen,0,F,3,1,123,23,0.8,0.2,1,0,0,1,0.552037001
100,1,16.16388889,Teen,0,F,3,1,124,24,0.8,0.2,1,1,0,1,0.251919985
100,1,16.16388889,Teen,0,F,3,1,125,25,0.8,0.2,1,0,0,1,0.285274982
100,1,16.16388889,Teen,0,F,3,1,126,26,0.8,0.2,1,1,0,1,0.285153866
100,1,16.16388889,Teen,0,F,3,1,127,27,0.8,0.2,1,0,1,1,0.252206802
100,1,16.16388889,Teen,0,F,3,1,128,28,0.8,0.2,1,1,0,1,0.383498192
100,1,16.16388889,Teen,0,F,3,1,129,29,0.8,0.2,1,1,0,1,0.218597174
100,1,16.16388889,Teen,0,F,3,1,130,30,0.8,0.2,1,1,0,1,0.218871117
100,1,16.16388889,Teen,0,F,3,1,131,31,0.8,0.2,1,0,0,1,0.235291004
100,1,16.16388889,Teen,0,F,3,1,132,32,0.8,0.2,1,0,1,1,0.002402067
100,1,16.16388889,Teen,0,F,3,1,133,33,0.8,0.2,1,1,0,1,1.201918125
100,1,16.16388889,Teen,0,F,3,1,134,34,0.8,0.2,1,1,0,1,0.33531189
100,1,16.16388889,Teen,0,F,3,1,135,35,0.8,0.2,1,0,0,1,0.352134943
100,1,16.16388889,Teen,0,F,3,1,136,36,0.8,0.2,1,1,0,1,0.268718958
100,1,16.16388889,Teen,0,F,3,1,137,37,0.8,0.2,1,1,0,1,0.551756859
100,1,16.16388889,Teen,0,F,3,1,138,38,0.8,0.2,1,0,0,1,0.668550014
100,1,16.16388889,Teen,0,F,3,1,139,39,0.8,0.2,1,0,1,1,0.452040195
100,1,16.16388889,Teen,0,F,3,1,140,40,0.8,0.2,1,0,1,1,0.25211978
100,1,16.16388889,Teen,0,F,3,1,141,41,0.8,0.2,1,0,1,1,0.235491991
100,1,16.16388889,Teen,0,F,3,1,142,42,0.8,0.2,1,0,1,1,0.218818903
100,1,16.16388889,Teen,0,F,3,1,143,43,0.8,0.2,1,1,0,1,0.885314941
100,1,16.16388889,Teen,0,F,3,1,144,44,0.8,0.2,1,1,0,1,0.235224962
100,1,16.16388889,Teen,0,F,3,1,145,45,0.8,0.2,1,0,0,1,0.252302885
100,1,16.16388889,Teen,0,F,3,1,146,46,0.8,0.2,1,0,1,1,0.235462189
100,1,16.16388889,Teen,0,F,3,1,147,47,0.8,0.2,1,0,1,1,0.268728018
100,1,16.16388889,Teen,0,F,3,1,148,48,0.8,0.2,0,0,0,0,0.401846886
100,1,16.16388889,Teen,0,F,3,1,149,49,0.8,0.2,1,0,0,1,0.268793821
100,1,16.16388889,Teen,0,F,3,1,150,50,0.8,0.2,1,1,0,1,0.235404968
38,1,13.79166667,Teen,0,A,1,1,1,1,0.2,0.8,1,0,1,0,5.032170057
38,1,13.79166667,Teen,0,A,1,1,2,2,0.2,0.8,1,1,0,0,0.400192976
38,1,13.79166667,Teen,0,A,1,1,3,3,0.2,0.8,1,0,0,0,0.235350132
38,1,13.79166667,Teen,0,A,1,1,4,4,0.2,0.8,1,0,1,0,0.501995087
38,1,13.79166667,Teen,0,A,1,1,5,5,0.2,0.8,0,1,0,1,0.252141953
38,1,13.79166667,Teen,0,A,1,1,6,6,0.2,0.8,0,0,0,1,0.368686914
38,1,13.79166667,Teen,0,A,1,1,7,7,0.2,0.8,0,1,1,1,0.218994856
38,1,13.79166667,Teen,0,A,1,1,8,8,0.2,0.8,0,1,1,1,0.985067129
38,1,13.79166667,Teen,0,A,1,1,9,9,0.2,0.8,0,1,0,1,0.385375023
38,1,13.79166667,Teen,0,A,1,1,10,10,0.2,0.8,0,0,0,1,0.285361052
38,1,13.79166667,Teen,0,A,1,1,11,11,0.2,0.8,0,1,0,1,0.002245188
38,1,13.79166667,Teen,0,A,1,1,12,12,0.2,0.8,0,1,0,1,0.251968861
38,1,13.79166667,Teen,0,A,1,1,13,13,0.2,0.8,1,0,1,0,0.868522882
38,1,13.79166667,Teen,0,A,1,1,14,14,0.2,0.8,0,1,0,1,0.085062981
38,1,13.79166667,Teen,0,A,1,1,15,15,0.2,0.8,0,0,1,1,0.002016068
38,1,13.79166667,Teen,0,A,1,1,16,16,0.2,0.8,0,1,0,1,0.102030039
38,1,13.79166667,Teen,0,A,1,1,17,17,0.2,0.8,0,0,1,1,0.818464041
38,1,13.79166667,Teen,0,A,1,1,18,18,0.2,0.8,0,1,0,1,0.618675947
38,1,13.79166667,Teen,0,A,1,1,19,19,0.2,0.8,0,1,0,1,0.252161026
38,1,13.79166667,Teen,0,A,1,1,20,20,0.2,0.8,0,1,0,1,0.18506217
38,1,13.79166667,Teen,0,A,1,1,21,21,0.2,0.8,0,1,0,1,0.068767071
38,1,13.79166667,Teen,0,A,1,1,22,22,0.2,0.8,0,0,1,1,0.101965904
38,1,13.79166667,Teen,0,A,1,1,23,23,0.2,0.8,0,0,1,1,0.235332966
38,1,13.79166667,Teen,0,A,1,1,24,24,0.2,0.8,0,0,1,1,0.085242033
38,1,13.79166667,Teen,0,A,1,1,25,25,0.2,0.8,0,1,0,1,0.50217104
38,1,13.79166667,Teen,0,A,1,1,26,26,0.2,0.8,0,1,0,1,0.200203896
38,1,13.79166667,Teen,0,A,1,1,27,27,0.2,0.8,0,0,1,1,0.168633938
38,1,13.79166667,Teen,0,A,1,1,28,28,0.2,0.8,0,0,1,1,0.002151012
38,1,13.79166667,Teen,0,A,1,1,29,29,0.2,0.8,0,0,1,1,0.351843119
38,1,13.79166667,Teen,0,A,1,1,30,30,0.2,0.8,0,1,0,1,0.468714952
38,1,13.79166667,Teen,0,A,1,1,31,31,0.2,0.8,0,0,1,1,0.002075195
38,1,13.79166667,Teen,0,A,1,1,32,32,0.2,0.8,0,1,0,1,0.383638144
38,1,13.79166667,Teen,0,A,1,1,33,33,0.2,0.8,0,1,0,1,0.418826103
38,1,13.79166667,Teen,0,A,1,1,34,34,0.2,0.8,0,0,1,1,0.218481064
38,1,13.79166667,Teen,0,A,1,1,35,35,0.2,0.8,0,1,0,1,0.451954842
38,1,13.79166667,Teen,0,A,1,1,36,36,0.2,0.8,0,1,0,1,0.718343973
38,1,13.79166667,Teen,0,A,1,1,37,37,0.2,0.8,1,0,1,0,1.251847029
38,1,13.79166667,Teen,0,A,1,1,38,38,0.2,0.8,0,1,0,1,0.252016068
38,1,13.79166667,Teen,0,A,1,1,39,39,0.2,0.8,0,1,0,1,0.218477964
38,1,13.79166667,Teen,0,A,1,1,40,40,0.2,0.8,0,1,0,1,0.168649912
38,1,13.79166667,Teen,0,A,1,1,41,41,0.2,0.8,0,0,1,1,0.18723011
38,1,13.79166667,Teen,0,A,1,1,42,42,0.2,0.8,0,1,0,1,0.185687065
38,1,13.79166667,Teen,0,A,1,1,43,43,0.2,0.8,0,0,1,1,0.468631029
38,1,13.79166667,Teen,0,A,1,1,44,44,0.2,0.8,0,0,1,1,0.201998949
38,1,13.79166667,Teen,0,A,1,1,45,45,0.2,0.8,0,1,0,1,0.118772984
38,1,13.79166667,Teen,0,A,1,1,46,46,0.2,0.8,0,1,0,1,0.435307026
38,1,13.79166667,Teen,0,A,1,1,47,47,0.2,0.8,0,0,1,1,0.135405064
38,1,13.79166667,Teen,0,A,1,1,48,48,0.2,0.8,0,0,1,1,0.368805885
38,1,13.79166667,Teen,0,A,1,1,49,49,0.2,0.8,0,1,0,1,0.402026892
38,1,13.79166667,Teen,0,A,1,1,50,50,0.2,0.8,0,0,1,1,0.185292006
38,1,13.79166667,Teen,0,A,2,3,51,1,0.8,0.2,1,0,1,1,9.449193954
38,1,13.79166667,Teen,0,A,2,3,52,2,0.8,0.2,1,1,1,1,0.235097885
38,1,13.79166667,Teen,0,A,2,3,53,3,0.8,0.2,1,1,1,1,0.21866703
38,1,13.79166667,Teen,0,A,2,3,54,4,0.8,0.2,1,1,1,1,0.468521833
38,1,13.79166667,Teen,0,A,2,3,55,5,0.8,0.2,1,1,1,1,0.20194602
38,1,13.79166667,Teen,0,A,2,3,56,6,0.8,0.2,1,0,0,1,0.26868701
38,1,13.79166667,Teen,0,A,2,3,57,7,0.8,0.2,1,1,1,1,0.118848085
38,1,13.79166667,Teen,0,A,2,3,58,8,0.8,0.2,1,1,0,1,0.101831913
38,1,13.79166667,Teen,0,A,2,3,59,9,0.8,0.2,1,1,1,1,0.466984987
38,1,13.79166667,Teen,0,A,2,3,60,10,0.8,0.2,1,1,0,1,0.318592072
38,1,13.79166667,Teen,0,A,2,3,61,11,0.8,0.2,1,1,1,1,0.168863058
38,1,13.79166667,Teen,0,A,2,3,62,12,0.8,0.2,1,0,0,1,0.185292959
38,1,13.79166667,Teen,0,A,2,3,63,13,0.8,0.2,1,1,1,1,0.051900148
38,1,13.79166667,Teen,0,A,2,3,64,14,0.8,0.2,1,1,0,1,0.201727867
38,1,13.79166667,Teen,0,A,2,3,65,15,0.8,0.2,1,0,1,1,0.368564844
38,1,13.79166667,Teen,0,A,2,3,66,16,0.8,0.2,1,1,0,1,0.168759108
38,1,13.79166667,Teen,0,A,2,3,67,17,0.8,0.2,1,1,1,1,0.20213294
38,1,13.79166667,Teen,0,A,2,3,68,18,0.8,0.2,1,1,0,1,0.167041779
38,1,13.79166667,Teen,0,A,2,3,69,19,0.8,0.2,1,1,1,1,0.068547964
38,1,13.79166667,Teen,0,A,2,3,70,20,0.8,0.2,1,1,0,1,0.06687212
38,1,13.79166667,Teen,0,A,2,3,71,21,0.8,0.2,1,1,1,1,0.151977777
38,1,13.79166667,Teen,0,A,2,3,72,22,0.8,0.2,1,0,0,1,0.135256052
38,1,13.79166667,Teen,0,A,2,3,73,23,0.8,0.2,1,1,1,1,0.150243998
38,1,13.79166667,Teen,0,A,2,3,74,24,0.8,0.2,1,0,0,1,0.070143938
38,1,13.79166667,Teen,0,A,2,3,75,25,0.8,0.2,1,1,1,1,0.202974796
38,1,13.79166667,Teen,0,A,2,3,76,26,0.8,0.2,1,1,0,1,0.086850882
38,1,13.79166667,Teen,0,A,2,3,77,27,0.8,0.2,1,0,1,1,0.036186934
38,1,13.79166667,Teen,0,A,2,3,78,28,0.8,0.2,1,1,0,1,0.220027924
38,1,13.79166667,Teen,0,A,2,3,79,29,0.8,0.2,1,1,1,1,0.202856064
38,1,13.79166667,Teen,0,A,2,3,80,30,0.8,0.2,1,0,0,1,0.136379004
38,1,13.79166667,Teen,0,A,2,3,81,31,0.8,0.2,1,1,1,1,0.136783838
38,1,13.79166667,Teen,0,A,2,3,82,32,0.8,0.2,1,0,0,1,0.070055008
38,1,13.79166667,Teen,0,A,2,3,83,33,0.8,0.2,1,1,1,1,0.402867794
38,1,13.79166667,Teen,0,A,2,3,84,34,0.8,0.2,1,1,0,1,0.119666815
38,1,13.79166667,Teen,0,A,2,3,85,35,0.8,0.2,1,1,1,1,0.003099203
38,1,13.79166667,Teen,0,A,2,3,86,36,0.8,0.2,1,1,0,1,0.168633938
38,1,13.79166667,Teen,0,A,2,3,87,37,0.8,0.2,1,0,1,1,0.085417986
38,1,13.79166667,Teen,0,A,2,3,88,38,0.8,0.2,1,1,0,1,0.033652067
38,1,13.79166667,Teen,0,A,2,3,89,39,0.8,0.2,1,1,1,1,0.00201416
38,1,13.79166667,Teen,0,A,2,3,90,40,0.8,0.2,1,1,0,1,0.018676996
38,1,13.79166667,Teen,0,A,2,3,91,41,0.8,0.2,1,0,1,1,0.101966858
38,1,13.79166667,Teen,0,A,2,3,92,42,0.8,0.2,1,1,0,1,0.068953037
38,1,13.79166667,Teen,0,A,2,3,93,43,0.8,0.2,1,1,1,1,0.002247095
38,1,13.79166667,Teen,0,A,2,3,94,44,0.8,0.2,1,1,0,1,0.166918993
38,1,13.79166667,Teen,0,A,2,3,95,45,0.8,0.2,1,1,0,1,0.285339832
38,1,13.79166667,Teen,0,A,2,3,96,46,0.8,0.2,1,0,1,1,0.201971054
38,1,13.79166667,Teen,0,A,2,3,97,47,0.8,0.2,1,1,0,1,0.15023303
38,1,13.79166667,Teen,0,A,2,3,98,48,0.8,0.2,1,0,1,1,0.001992941
38,1,13.79166667,Teen,0,A,2,3,99,49,0.8,0.2,1,1,0,1,0.26860714
38,1,13.79166667,Teen,0,A,2,3,100,50,0.8,0.2,1,0,1,1,0.202169895
38,1,13.79166667,Teen,0,A,3,2,101,1,0.8,0.2,1,1,1,1,3.317893028
38,1,13.79166667,Teen,0,A,3,2,102,2,0.8,0.2,1,1,1,1,0.118565083
38,1,13.79166667,Teen,0,A,3,2,103,3,0.8,0.2,1,1,1,1,0.085330009
38,1,13.79166667,Teen,0,A,3,2,104,4,0.8,0.2,1,1,1,1,0.435232162
38,1,13.79166667,Teen,0,A,3,2,105,5,0.8,0.2,1,0,0,1,0.185233116
38,1,13.79166667,Teen,0,A,3,2,106,6,0.8,0.2,1,1,1,1,0.102238178
38,1,13.79166667,Teen,0,A,3,2,107,7,0.8,0.2,0,0,0,0,0.218991995
38,1,13.79166667,Teen,0,A,3,2,108,8,0.8,0.2,1,0,0,1,0.168642044
38,1,13.79166667,Teen,0,A,3,2,109,9,0.8,0.2,1,1,1,1,0.01870513
38,1,13.79166667,Teen,0,A,3,2,110,10,0.8,0.2,1,1,1,1,0.252032995
38,1,13.79166667,Teen,0,A,3,2,111,11,0.8,0.2,1,1,1,1,0.052035093
38,1,13.79166667,Teen,0,A,3,2,112,12,0.8,0.2,1,1,1,1,0.118654013
38,1,13.79166667,Teen,0,A,3,2,113,13,0.8,0.2,1,1,1,1,0.118756056
38,1,13.79166667,Teen,0,A,3,2,114,14,0.8,0.2,1,1,1,1,0.168694973
38,1,13.79166667,Teen,0,A,3,2,115,15,0.8,0.2,1,0,1,1,0.151918888
38,1,13.79166667,Teen,0,A,3,2,116,16,0.8,0.2,1,1,1,1,0.068621159
38,1,13.79166667,Teen,0,A,3,2,117,17,0.8,0.2,1,0,1,1,0.085168839
38,1,13.79166667,Teen,0,A,3,2,118,18,0.8,0.2,1,1,1,1,0.168722868
38,1,13.79166667,Teen,0,A,3,2,119,19,0.8,0.2,1,1,1,1,0.002271891
38,1,13.79166667,Teen,0,A,3,2,120,20,0.8,0.2,1,1,1,1,0.002066135
38,1,13.79166667,Teen,0,A,3,2,121,21,0.8,0.2,0,0,1,0,0.218723059
38,1,13.79166667,Teen,0,A,3,2,122,22,0.8,0.2,1,1,1,1,0.05241394
38,1,13.79166667,Teen,0,A,3,2,123,23,0.8,0.2,1,1,1,1,0.152049065
38,1,13.79166667,Teen,0,A,3,2,124,24,0.8,0.2,1,1,1,1,0.185470819
38,1,13.79166667,Teen,0,A,3,2,125,25,0.8,0.2,1,1,1,1,0.15177989
38,1,13.79166667,Teen,0,A,3,2,126,26,0.8,0.2,1,1,1,1,0.135221958
38,1,13.79166667,Teen,0,A,3,2,127,27,0.8,0.2,1,1,1,1,0.185331106
38,1,13.79166667,Teen,0,A,3,2,128,28,0.8,0.2,1,1,1,1,0.251867056
38,1,13.79166667,Teen,0,A,3,2,129,29,0.8,0.2,1,1,1,1,0.23389411
38,1,13.79166667,Teen,0,A,3,2,130,30,0.8,0.2,1,0,0,1,0.185333014
38,1,13.79166667,Teen,0,A,3,2,131,31,0.8,0.2,1,1,1,1,0.018532038
38,1,13.79166667,Teen,0,A,3,2,132,32,0.8,0.2,1,1,1,1,0.002179861
38,1,13.79166667,Teen,0,A,3,2,133,33,0.8,0.2,1,1,1,1,0.518446922
38,1,13.79166667,Teen,0,A,3,2,134,34,0.8,0.2,1,1,1,1,0.252126932
38,1,13.79166667,Teen,0,A,3,2,135,35,0.8,0.2,1,1,1,1,1.135037899
38,1,13.79166667,Teen,0,A,3,2,136,36,0.8,0.2,1,0,0,1,0.118495941
38,1,13.79166667,Teen,0,A,3,2,137,37,0.8,0.2,1,1,1,1,0.152041912
38,1,13.79166667,Teen,0,A,3,2,138,38,0.8,0.2,1,1,1,1,0.118672132
38,1,13.79166667,Teen,0,A,3,2,139,39,0.8,0.2,1,0,0,1,0.218493938
38,1,13.79166667,Teen,0,A,3,2,140,40,0.8,0.2,1,0,0,1,0.101995945
38,1,13.79166667,Teen,0,A,3,2,141,41,0.8,0.2,1,1,1,1,0.601908922
38,1,13.79166667,Teen,0,A,3,2,142,42,0.8,0.2,1,1,1,1,0.018661022
38,1,13.79166667,Teen,0,A,3,2,143,43,0.8,0.2,1,1,1,1,0.201941013
38,1,13.79166667,Teen,0,A,3,2,144,44,0.8,0.2,1,1,1,1,0.252151966
38,1,13.79166667,Teen,0,A,3,2,145,45,0.8,0.2,1,1,1,1,0.418627977
38,1,13.79166667,Teen,0,A,3,2,146,46,0.8,0.2,1,1,1,1,0.102046013
38,1,13.79166667,Teen,0,A,3,2,147,47,0.8,0.2,1,1,1,1,0.185467005
38,1,13.79166667,Teen,0,A,3,2,148,48,0.8,0.2,1,1,1,1,0.185106993
38,1,13.79166667,Teen,0,A,3,2,149,49,0.8,0.2,1,1,1,1,0.052054882
38,1,13.79166667,Teen,0,A,3,2,150,50,0.8,0.2,1,1,1,1,0.002150059
71,1,13.16388889,Teen,1,B,1,2,1,1,0.8,0.2,0,1,0,0,3.251167059
71,1,13.16388889,Teen,1,B,1,2,2,2,0.8,0.2,0,0,0,0,1.0516119
71,1,13.16388889,Teen,1,B,1,2,3,3,0.8,0.2,1,1,1,1,0.685265064
71,1,13.16388889,Teen,1,B,1,2,4,4,0.8,0.2,1,0,0,1,1.55142808
71,1,13.16388889,Teen,1,B,1,2,5,5,0.8,0.2,0,0,0,0,1.085060835
71,1,13.16388889,Teen,1,B,1,2,6,6,0.8,0.2,1,1,0,1,1.218173981
71,1,13.16388889,Teen,1,B,1,2,7,7,0.8,0.2,1,1,0,1,1.185018063
71,1,13.16388889,Teen,1,B,1,2,8,8,0.8,0.2,1,0,0,1,1.301700115
71,1,13.16388889,Teen,1,B,1,2,9,9,0.8,0.2,0,0,0,0,0.568464994
71,1,13.16388889,Teen,1,B,1,2,10,10,0.8,0.2,1,1,0,1,1.568223953
71,1,13.16388889,Teen,1,B,1,2,11,11,0.8,0.2,1,1,0,1,1.634830952
71,1,13.16388889,Teen,1,B,1,2,12,12,0.8,0.2,1,1,1,1,1.118415117
71,1,13.16388889,Teen,1,B,1,2,13,13,0.8,0.2,1,0,0,1,1.318267822
71,1,13.16388889,Teen,1,B,1,2,14,14,0.8,0.2,1,1,1,1,1.818047047
71,1,13.16388889,Teen,1,B,1,2,15,15,0.8,0.2,1,1,0,1,1.051913023
71,1,13.16388889,Teen,1,B,1,2,16,16,0.8,0.2,1,1,1,1,2.084441185
71,1,13.16388889,Teen,1,B,1,2,17,17,0.8,0.2,1,1,1,1,0.985071898
71,1,13.16388889,Teen,1,B,1,2,18,18,0.8,0.2,1,1,0,1,1.051854849
71,1,13.16388889,Teen,1,B,1,2,19,19,0.8,0.2,1,1,1,1,1.768378019
71,1,13.16388889,Teen,1,B,1,2,20,20,0.8,0.2,1,1,0,1,1.134930849
71,1,13.16388889,Teen,1,B,1,2,21,21,0.8,0.2,1,1,0,1,1.101552963
71,1,13.16388889,Teen,1,B,1,2,22,22,0.8,0.2,1,1,0,1,0.501967907
71,1,13.16388889,Teen,1,B,1,2,23,23,0.8,0.2,1,1,0,1,1.00153017
71,1,13.16388889,Teen,1,B,1,2,24,24,0.8,0.2,1,1,0,1,1.551537037
71,1,13.16388889,Teen,1,B,1,2,25,25,0.8,0.2,1,1,0,1,1.051849842
71,1,13.16388889,Teen,1,B,1,2,26,26,0.8,0.2,1,1,1,1,1.451629877
71,1,13.16388889,Teen,1,B,1,2,27,27,0.8,0.2,1,1,0,1,1.01834321
71,1,13.16388889,Teen,1,B,1,2,28,28,0.8,0.2,1,1,0,1,1.384840965
71,1,13.16388889,Teen,1,B,1,2,29,29,0.8,0.2,1,1,0,1,1.801590919
71,1,13.16388889,Teen,1,B,1,2,30,30,0.8,0.2,1,1,0,1,1.034898043
71,1,13.16388889,Teen,1,B,1,2,31,31,0.8,0.2,1,1,0,1,0.98522687
71,1,13.16388889,Teen,1,B,1,2,32,32,0.8,0.2,1,0,0,1,1.251700878
71,1,13.16388889,Teen,1,B,1,2,33,33,0.8,0.2,1,1,0,1,0.883378983
71,1,13.16388889,Teen,1,B,1,2,34,34,0.8,0.2,1,1,0,1,2.501372099
71,1,13.16388889,Teen,1,B,1,2,35,35,0.8,0.2,1,1,1,1,1.085173845
71,1,13.16388889,Teen,1,B,1,2,36,36,0.8,0.2,1,1,0,1,1.335052013
71,1,13.16388889,Teen,1,B,1,2,37,37,0.8,0.2,1,1,0,1,1.468327999
71,1,13.16388889,Teen,1,B,1,2,38,38,0.8,0.2,1,1,0,1,1.034971952
71,1,13.16388889,Teen,1,B,1,2,39,39,0.8,0.2,1,1,0,1,1.06823802
71,1,13.16388889,Teen,1,B,1,2,40,40,0.8,0.2,1,1,1,1,0.668384075
71,1,13.16388889,Teen,1,B,1,2,41,41,0.8,0.2,1,1,0,1,0.600093126
71,1,13.16388889,Teen,1,B,1,2,42,42,0.8,0.2,1,1,0,1,0.918565035
71,1,13.16388889,Teen,1,B,1,2,43,43,0.8,0.2,1,0,0,1,0.701920986
71,1,13.16388889,Teen,1,B,1,2,44,44,0.8,0.2,1,1,0,1,1.16801405
71,1,13.16388889,Teen,1,B,1,2,45,45,0.8,0.2,1,1,1,1,0.468699932
71,1,13.16388889,Teen,1,B,1,2,46,46,0.8,0.2,1,1,0,1,0.568825006
71,1,13.16388889,Teen,1,B,1,2,47,47,0.8,0.2,1,1,0,1,0.801636934
71,1,13.16388889,Teen,1,B,1,2,48,48,0.8,0.2,1,1,0,1,1.601400852
71,1,13.16388889,Teen,1,B,1,2,49,49,0.8,0.2,1,1,0,1,0.701858997
71,1,13.16388889,Teen,1,B,1,2,50,50,0.8,0.2,1,1,1,1,1.068357944
71,1,13.16388889,Teen,1,B,2,3,51,1,0.8,0.2,0,0,0,0,3.734206915
71,1,13.16388889,Teen,1,B,2,3,52,2,0.8,0.2,1,1,0,1,0.701649904
71,1,13.16388889,Teen,1,B,2,3,53,3,0.8,0.2,1,1,0,1,0.435084105
71,1,13.16388889,Teen,1,B,2,3,54,4,0.8,0.2,1,1,0,1,0.901566982
71,1,13.16388889,Teen,1,B,2,3,55,5,0.8,0.2,1,0,0,1,0.584976912
71,1,13.16388889,Teen,1,B,2,3,56,6,0.8,0.2,1,0,0,1,0.518630981
71,1,13.16388889,Teen,1,B,2,3,57,7,0.8,0.2,0,0,0,0,0.46842289
71,1,13.16388889,Teen,1,B,2,3,58,8,0.8,0.2,1,1,0,1,0.48519516
71,1,13.16388889,Teen,1,B,2,3,59,9,0.8,0.2,1,1,0,1,1.834830046
71,1,13.16388889,Teen,1,B,2,3,60,10,0.8,0.2,1,0,0,1,1.068016052
71,1,13.16388889,Teen,1,B,2,3,61,11,0.8,0.2,1,1,1,1,1.101751804
71,1,13.16388889,Teen,1,B,2,3,62,12,0.8,0.2,1,0,0,1,1.451521873
71,1,13.16388889,Teen,1,B,2,3,63,13,0.8,0.2,1,1,0,1,0.401797056
71,1,13.16388889,Teen,1,B,2,3,64,14,0.8,0.2,1,0,1,1,0.76690197
71,1,13.16388889,Teen,1,B,2,3,65,15,0.8,0.2,1,0,0,1,1.401378155
71,1,13.16388889,Teen,1,B,2,3,66,16,0.8,0.2,0,0,0,0,2.466391802
71,1,13.16388889,Teen,1,B,2,3,67,17,0.8,0.2,1,1,0,1,0.368788958
71,1,13.16388889,Teen,1,B,2,3,68,18,0.8,0.2,1,1,0,1,1.251590967
71,1,13.16388889,Teen,1,B,2,3,69,19,0.8,0.2,1,0,0,1,0.701890945
71,1,13.16388889,Teen,1,B,2,3,70,20,0.8,0.2,1,1,1,1,1.068070173
71,1,13.16388889,Teen,1,B,2,3,71,21,0.8,0.2,1,1,0,1,0.935011864
71,1,13.16388889,Teen,1,B,2,3,72,22,0.8,0.2,1,1,0,1,1.085083961
71,1,13.16388889,Teen,1,B,2,3,73,23,0.8,0.2,1,1,0,1,0.835160017
71,1,13.16388889,Teen,1,B,2,3,74,24,0.8,0.2,1,0,1,1,1.218251944
71,1,13.16388889,Teen,1,B,2,3,75,25,0.8,0.2,1,1,0,1,4.000929117
71,1,13.16388889,Teen,1,B,2,3,76,26,0.8,0.2,1,1,0,1,0.684975863
71,1,13.16388889,Teen,1,B,2,3,77,27,0.8,0.2,1,1,0,1,0.98503685
71,1,13.16388889,Teen,1,B,2,3,78,28,0.8,0.2,1,0,0,1,1.584884882
71,1,13.16388889,Teen,1,B,2,3,79,29,0.8,0.2,1,1,0,1,1.085123062
71,1,13.16388889,Teen,1,B,2,3,80,30,0.8,0.2,1,0,0,1,1.668379068
71,1,13.16388889,Teen,1,B,2,3,81,31,0.8,0.2,1,0,0,1,2.868051052
71,1,13.16388889,Teen,1,B,2,3,82,32,0.8,0.2,1,0,1,1,0.566907883
71,1,13.16388889,Teen,1,B,2,3,83,33,0.8,0.2,0,0,0,0,2.868103027
71,1,13.16388889,Teen,1,B,2,3,84,34,0.8,0.2,1,1,0,1,0.718451977
71,1,13.16388889,Teen,1,B,2,3,85,35,0.8,0.2,1,1,0,1,2.467666864
71,1,13.16388889,Teen,1,B,2,3,86,36,0.8,0.2,1,1,0,1,0.535203934
71,1,13.16388889,Teen,1,B,2,3,87,37,0.8,0.2,1,0,0,1,0.468605042
71,1,13.16388889,Teen,1,B,2,3,88,38,0.8,0.2,1,0,0,1,1.901542902
71,1,13.16388889,Teen,1,B,2,3,89,39,0.8,0.2,1,1,0,1,1.084913969
71,1,13.16388889,Teen,1,B,2,3,90,40,0.8,0.2,1,1,0,1,0.935000181
71,1,13.16388889,Teen,1,B,2,3,91,41,0.8,0.2,1,1,0,1,1.501594067
71,1,13.16388889,Teen,1,B,2,3,92,42,0.8,0.2,1,1,0,1,1.268484116
71,1,13.16388889,Teen,1,B,2,3,93,43,0.8,0.2,1,1,0,1,1.168318987
71,1,13.16388889,Teen,1,B,2,3,94,44,0.8,0.2,1,1,0,1,1.184885025
71,1,13.16388889,Teen,1,B,2,3,95,45,0.8,0.2,1,1,0,1,0.685242891
71,1,13.16388889,Teen,1,B,2,3,96,46,0.8,0.2,1,1,0,1,0.918452978
71,1,13.16388889,Teen,1,B,2,3,97,47,0.8,0.2,1,1,0,1,0.901757956
71,1,13.16388889,Teen,1,B,2,3,98,48,0.8,0.2,1,1,0,1,1.284642935
71,1,13.16388889,Teen,1,B,2,3,99,49,0.8,0.2,1,1,0,1,1.001520872
71,1,13.16388889,Teen,1,B,2,3,100,50,0.8,0.2,1,1,0,1,1.334956169
71,1,13.16388889,Teen,1,B,3,1,101,1,0.8,0.2,1,1,0,1,2.767772913
71,1,13.16388889,Teen,1,B,3,1,102,2,0.8,0.2,1,1,0,1,0.568534136
71,1,13.16388889,Teen,1,B,3,1,103,3,0.8,0.2,1,0,0,1,0.535125971
71,1,13.16388889,Teen,1,B,3,1,104,4,0.8,0.2,1,0,0,1,0.817996979
71,1,13.16388889,Teen,1,B,3,1,105,5,0.8,0.2,1,1,0,1,0.368592978
71,1,13.16388889,Teen,1,B,3,1,106,6,0.8,0.2,1,1,0,1,1.218159914
71,1,13.16388889,Teen,1,B,3,1,107,7,0.8,0.2,1,1,0,1,2.201293945
71,1,13.16388889,Teen,1,B,3,1,108,8,0.8,0.2,1,0,0,1,0.601927996
71,1,13.16388889,Teen,1,B,3,1,109,9,0.8,0.2,1,0,0,1,0.368560076
71,1,13.16388889,Teen,1,B,3,1,110,10,0.8,0.2,1,1,0,1,0.501770973
71,1,13.16388889,Teen,1,B,3,1,111,11,0.8,0.2,1,0,1,1,0.418573856
71,1,13.16388889,Teen,1,B,3,1,112,12,0.8,0.2,1,1,0,1,0.400260925
71,1,13.16388889,Teen,1,B,3,1,113,13,0.8,0.2,1,1,0,1,0.485049009
71,1,13.16388889,Teen,1,B,3,1,114,14,0.8,0.2,1,1,0,1,0.585266113
71,1,13.16388889,Teen,1,B,3,1,115,15,0.8,0.2,1,0,0,1,0.685242176
71,1,13.16388889,Teen,1,B,3,1,116,16,0.8,0.2,1,1,0,1,0.885245085
71,1,13.16388889,Teen,1,B,3,1,117,17,0.8,0.2,1,0,0,1,0.435132027
71,1,13.16388889,Teen,1,B,3,1,118,18,0.8,0.2,1,1,0,1,0.434650898
71,1,13.16388889,Teen,1,B,3,1,119,19,0.8,0.2,1,1,0,1,0.518458128
71,1,13.16388889,Teen,1,B,3,1,120,20,0.8,0.2,1,0,0,1,0.533535004
71,1,13.16388889,Teen,1,B,3,1,121,21,0.8,0.2,1,1,0,1,0.468542099
71,1,13.16388889,Teen,1,B,3,1,122,22,0.8,0.2,1,1,0,1,0.88519311
71,1,13.16388889,Teen,1,B,3,1,123,23,0.8,0.2,1,1,0,1,0.451811075
71,1,13.16388889,Teen,1,B,3,1,124,24,0.8,0.2,1,1,0,1,0.4501791
71,1,13.16388889,Teen,1,B,3,1,125,25,0.8,0.2,1,1,0,1,0.685003996
71,1,13.16388889,Teen,1,B,3,1,126,26,0.8,0.2,1,0,0,1,0.851725101
71,1,13.16388889,Teen,1,B,3,1,127,27,0.8,0.2,1,1,0,1,0.350355864
71,1,13.16388889,Teen,1,B,3,1,128,28,0.8,0.2,1,1,0,1,2.151587009
71,1,13.16388889,Teen,1,B,3,1,129,29,0.8,0.2,1,1,0,1,0.785106897
71,1,13.16388889,Teen,1,B,3,1,130,30,0.8,0.2,1,0,1,1,1.668023109
71,1,13.16388889,Teen,1,B,3,1,131,31,0.8,0.2,1,1,0,1,1.035232067
71,1,13.16388889,Teen,1,B,3,1,132,32,0.8,0.2,1,0,0,1,1.018177986
71,1,13.16388889,Teen,1,B,3,1,133,33,0.8,0.2,1,1,0,1,0.56853199
71,1,13.16388889,Teen,1,B,3,1,134,34,0.8,0.2,1,0,1,1,1.051648855
71,1,13.16388889,Teen,1,B,3,1,135,35,0.8,0.2,1,1,0,1,1.201467037
71,1,13.16388889,Teen,1,B,3,1,136,36,0.8,0.2,1,0,0,1,1.250031948
71,1,13.16388889,Teen,1,B,3,1,137,37,0.8,0.2,1,0,0,1,3.101331949
71,1,13.16388889,Teen,1,B,3,1,138,38,0.8,0.2,1,1,0,1,1.018553972
71,1,13.16388889,Teen,1,B,3,1,139,39,0.8,0.2,1,1,0,1,1.5183599
71,1,13.16388889,Teen,1,B,3,1,140,40,0.8,0.2,1,0,0,1,1.484833002
71,1,13.16388889,Teen,1,B,3,1,141,41,0.8,0.2,1,1,0,1,0.851616859
71,1,13.16388889,Teen,1,B,3,1,142,42,0.8,0.2,1,0,1,1,1.335115194
71,1,13.16388889,Teen,1,B,3,1,143,43,0.8,0.2,1,1,0,1,0.935096979
71,1,13.16388889,Teen,1,B,3,1,144,44,0.8,0.2,1,0,0,1,0.651757956
71,1,13.16388889,Teen,1,B,3,1,145,45,0.8,0.2,1,0,0,1,0.518608093
71,1,13.16388889,Teen,1,B,3,1,146,46,0.8,0.2,1,0,1,1,0.518582106
71,1,13.16388889,Teen,1,B,3,1,147,47,0.8,0.2,1,0,0,1,1.084997892
71,1,13.16388889,Teen,1,B,3,1,148,48,0.8,0.2,0,1,0,0,0.418622971
71,1,13.16388889,Teen,1,B,3,1,149,49,0.8,0.2,0,0,0,0,4.48426795
71,1,13.16388889,Teen,1,B,3,1,150,50,0.8,0.2,1,0,0,1,0.551879883
86,1,13.22777778,Teen,1,D,1,1,1,1,0.2,0.8,0,0,0,1,1.736548901
86,1,13.22777778,Teen,1,D,1,1,2,2,0.2,0.8,1,0,1,0,0.852945089
86,1,13.22777778,Teen,1,D,1,1,3,3,0.2,0.8,0,1,0,1,1.136204958
86,1,13.22777778,Teen,1,D,1,1,4,4,0.2,0.8,1,0,0,0,2.135827065
86,1,13.22777778,Teen,1,D,1,1,5,5,0.2,0.8,1,0,0,0,1.819339991
86,1,13.22777778,Teen,1,D,1,1,6,6,0.2,0.8,0,1,0,1,0.352857113
86,1,13.22777778,Teen,1,D,1,1,7,7,0.2,0.8,0,0,1,1,0.586740017
86,1,13.22777778,Teen,1,D,1,1,8,8,0.2,0.8,0,0,1,1,0.919439793
86,1,13.22777778,Teen,1,D,1,1,9,9,0.2,0.8,1,1,0,0,0.419599056
86,1,13.22777778,Teen,1,D,1,1,10,10,0.2,0.8,1,0,0,0,1.65231514
86,1,13.22777778,Teen,1,D,1,1,11,11,0.2,0.8,0,0,1,1,0.353487968
86,1,13.22777778,Teen,1,D,1,1,12,12,0.2,0.8,1,0,0,0,0.619486094
86,1,13.22777778,Teen,1,D,1,1,13,13,0.2,0.8,0,0,1,1,0.569975853
86,1,13.22777778,Teen,1,D,1,1,14,14,0.2,0.8,0,1,0,1,1.968815088
86,1,13.22777778,Teen,1,D,1,1,15,15,0.2,0.8,0,1,0,1,0.386245966
86,1,13.22777778,Teen,1,D,1,1,16,16,0.2,0.8,0,1,0,1,1.320080042
86,1,13.22777778,Teen,1,D,1,1,17,17,0.2,0.8,1,0,0,0,1.986301899
86,1,13.22777778,Teen,1,D,1,1,18,18,0.2,0.8,0,0,1,1,0.453125954
86,1,13.22777778,Teen,1,D,1,1,19,19,0.2,0.8,0,0,0,1,0.403486967
86,1,13.22777778,Teen,1,D,1,1,20,20,0.2,0.8,0,0,1,1,0.73603487
86,1,13.22777778,Teen,1,D,1,1,21,21,0.2,0.8,0,1,0,1,0.419593096
86,1,13.22777778,Teen,1,D,1,1,22,22,0.2,0.8,0,1,0,1,0.336253881
86,1,13.22777778,Teen,1,D,1,1,23,23,0.2,0.8,0,0,0,1,0.31960988
86,1,13.22777778,Teen,1,D,1,1,24,24,0.2,0.8,1,0,0,0,0.436173916
86,1,13.22777778,Teen,1,D,1,1,25,25,0.2,0.8,1,0,0,0,0.32014513
86,1,13.22777778,Teen,1,D,1,1,26,26,0.2,0.8,0,1,0,1,0.319463968
86,1,13.22777778,Teen,1,D,1,1,27,27,0.2,0.8,0,1,0,1,0.352586985
86,1,13.22777778,Teen,1,D,1,1,28,28,0.2,0.8,0,1,0,1,0.303241014
86,1,13.22777778,Teen,1,D,1,1,29,29,0.2,0.8,0,1,0,1,0.36956501
86,1,13.22777778,Teen,1,D,1,1,30,30,0.2,0.8,0,0,0,1,0.320294142
86,1,13.22777778,Teen,1,D,1,1,31,31,0.2,0.8,0,1,0,1,0.503113985
86,1,13.22777778,Teen,1,D,1,1,32,32,0.2,0.8,0,1,0,1,0.383531094
86,1,13.22777778,Teen,1,D,1,1,33,33,0.2,0.8,0,0,1,1,0.40279603
86,1,13.22777778,Teen,1,D,1,1,34,34,0.2,0.8,0,0,1,1,0.336733103
86,1,13.22777778,Teen,1,D,1,1,35,35,0.2,0.8,0,1,0,1,0.320079088
86,1,13.22777778,Teen,1,D,1,1,36,36,0.2,0.8,0,1,0,1,0.619437933
86,1,13.22777778,Teen,1,D,1,1,37,37,0.2,0.8,0,1,0,1,0.516802073
86,1,13.22777778,Teen,1,D,1,1,38,38,0.2,0.8,0,1,0,1,0.286324024
86,1,13.22777778,Teen,1,D,1,1,39,39,0.2,0.8,0,0,0,1,0.752614975
86,1,13.22777778,Teen,1,D,1,1,40,40,0.2,0.8,0,0,1,1,0.41939187
86,1,13.22777778,Teen,1,D,1,1,41,41,0.2,0.8,1,0,0,0,1.569698095
86,1,13.22777778,Teen,1,D,1,1,42,42,0.2,0.8,0,1,0,1,0.319575071
86,1,13.22777778,Teen,1,D,1,1,43,43,0.2,0.8,0,0,0,1,0.519804001
86,1,13.22777778,Teen,1,D,1,1,44,44,0.2,0.8,0,0,1,1,0.353052139
86,1,13.22777778,Teen,1,D,1,1,45,45,0.2,0.8,0,1,0,1,0.302937984
86,1,13.22777778,Teen,1,D,1,1,46,46,0.2,0.8,0,1,0,1,0.41959095
86,1,13.22777778,Teen,1,D,1,1,47,47,0.2,0.8,0,1,0,1,0.302896023
86,1,13.22777778,Teen,1,D,1,1,48,48,0.2,0.8,0,0,1,1,0.419519901
86,1,13.22777778,Teen,1,D,1,1,49,49,0.2,0.8,1,0,0,0,0.753041983
86,1,13.22777778,Teen,1,D,1,1,50,50,0.2,0.8,1,0,0,0,0.252739906
86,1,13.22777778,Teen,1,D,2,2,51,1,0.2,0.8,1,1,0,0,1.136024952
86,1,13.22777778,Teen,1,D,2,2,52,2,0.2,0.8,1,1,1,0,0.453022003
86,1,13.22777778,Teen,1,D,2,2,53,3,0.2,0.8,0,1,0,1,0.336229086
86,1,13.22777778,Teen,1,D,2,2,54,4,0.2,0.8,0,1,0,1,0.586453915
86,1,13.22777778,Teen,1,D,2,2,55,5,0.2,0.8,0,1,1,1,0.319553852
86,1,13.22777778,Teen,1,D,2,2,56,6,0.2,0.8,1,1,1,0,0.349870205
86,1,13.22777778,Teen,1,D,2,2,57,7,0.2,0.8,1,1,0,0,0.369616032
86,1,13.22777778,Teen,1,D,2,2,58,8,0.2,0.8,1,1,0,0,0.303385973
86,1,13.22777778,Teen,1,D,2,2,59,9,0.2,0.8,0,1,1,1,0.386296988
86,1,13.22777778,Teen,1,D,2,2,60,10,0.2,0.8,0,1,1,1,0.453428984
86,1,13.22777778,Teen,1,D,2,2,61,11,0.2,0.8,0,0,0,1,0.536337852
86,1,13.22777778,Teen,1,D,2,2,62,12,0.2,0.8,0,1,0,1,0.319443941
86,1,13.22777778,Teen,1,D,2,2,63,13,0.2,0.8,1,1,0,0,0.452994108
86,1,13.22777778,Teen,1,D,2,2,64,14,0.2,0.8,1,1,0,0,0.369574785
86,1,13.22777778,Teen,1,D,2,2,65,15,0.2,0.8,1,0,0,0,0.352837086
86,1,13.22777778,Teen,1,D,2,2,66,16,0.2,0.8,1,0,0,0,0.353018045
86,1,13.22777778,Teen,1,D,2,2,67,17,0.2,0.8,1,0,0,0,0.335895061
86,1,13.22777778,Teen,1,D,2,2,68,18,0.2,0.8,1,0,0,0,0.636229992
86,1,13.22777778,Teen,1,D,2,2,69,19,0.2,0.8,0,0,0,1,0.269782066
86,1,13.22777778,Teen,1,D,2,2,70,20,0.2,0.8,0,1,0,1,0.286641836
86,1,13.22777778,Teen,1,D,2,2,71,21,0.2,0.8,0,1,0,1,0.369787216
86,1,13.22777778,Teen,1,D,2,2,72,22,0.2,0.8,0,1,0,1,0.320258141
86,1,13.22777778,Teen,1,D,2,2,73,23,0.2,0.8,0,1,0,1,0.372704029
86,1,13.22777778,Teen,1,D,2,2,74,24,0.2,0.8,0,1,1,1,0.336641073
86,1,13.22777778,Teen,1,D,2,2,75,25,0.2,0.8,0,1,0,1,0.270026922
86,1,13.22777778,Teen,1,D,2,2,76,26,0.2,0.8,0,1,0,1,0.286444902
86,1,13.22777778,Teen,1,D,2,2,77,27,0.2,0.8,1,0,0,0,0.502853155
86,1,13.22777778,Teen,1,D,2,2,78,28,0.2,0.8,1,1,1,0,0.319633961
86,1,13.22777778,Teen,1,D,2,2,79,29,0.2,0.8,1,0,0,0,0.336164951
86,1,13.22777778,Teen,1,D,2,2,80,30,0.2,0.8,0,1,0,1,0.320011854
86,1,13.22777778,Teen,1,D,2,2,81,31,0.2,0.8,0,1,0,1,0.419874907
86,1,13.22777778,Teen,1,D,2,2,82,32,0.2,0.8,0,0,0,1,0.353458166
86,1,13.22777778,Teen,1,D,2,2,83,33,0.2,0.8,0,1,0,1,0.30266881
86,1,13.22777778,Teen,1,D,2,2,84,34,0.2,0.8,0,1,0,1,0.453358889
86,1,13.22777778,Teen,1,D,2,2,85,35,0.2,0.8,0,0,0,1,0.419721842
86,1,13.22777778,Teen,1,D,2,2,86,36,0.2,0.8,0,1,1,1,0.286732197
86,1,13.22777778,Teen,1,D,2,2,87,37,0.2,0.8,0,1,0,1,0.336267948
86,1,13.22777778,Teen,1,D,2,2,88,38,0.2,0.8,0,0,0,1,0.302896023
86,1,13.22777778,Teen,1,D,2,2,89,39,0.2,0.8,1,0,0,0,0.253509998
86,1,13.22777778,Teen,1,D,2,2,90,40,0.2,0.8,1,0,0,0,0.383276939
86,1,13.22777778,Teen,1,D,2,2,91,41,0.2,0.8,1,0,0,0,0.286727905
86,1,13.22777778,Teen,1,D,2,2,92,42,0.2,0.8,0,1,1,1,0.386099815
86,1,13.22777778,Teen,1,D,2,2,93,43,0.2,0.8,0,1,0,1,0.586874008
86,1,13.22777778,Teen,1,D,2,2,94,44,0.2,0.8,0,1,0,1,0.30320096
86,1,13.22777778,Teen,1,D,2,2,95,45,0.2,0.8,0,1,1,1,0.236402035
86,1,13.22777778,Teen,1,D,2,2,96,46,0.2,0.8,0,1,0,1,0.302947044
86,1,13.22777778,Teen,1,D,2,2,97,47,0.2,0.8,0,1,1,1,0.286350966
86,1,13.22777778,Teen,1,D,2,2,98,48,0.2,0.8,0,1,0,1,0.319356918
86,1,13.22777778,Teen,1,D,2,2,99,49,0.2,0.8,0,1,1,1,0.286217928
86,1,13.22777778,Teen,1,D,2,2,100,50,0.2,0.8,1,0,0,0,0.386226177
86,1,13.22777778,Teen,1,D,3,3,101,1,0.2,0.8,1,0,0,0,1.602973938
86,1,13.22777778,Teen,1,D,3,3,102,2,0.2,0.8,1,0,1,0,0.28612709
86,1,13.22777778,Teen,1,D,3,3,103,3,0.2,0.8,1,0,0,0,0.436133862
86,1,13.22777778,Teen,1,D,3,3,104,4,0.2,0.8,0,1,0,1,0.686702967
86,1,13.22777778,Teen,1,D,3,3,105,5,0.2,0.8,0,1,1,1,0.28689909
86,1,13.22777778,Teen,1,D,3,3,106,6,0.2,0.8,0,1,0,1,0.40308094
86,1,13.22777778,Teen,1,D,3,3,107,7,0.2,0.8,0,0,0,1,0.435827971
86,1,13.22777778,Teen,1,D,3,3,108,8,0.2,0.8,0,1,0,1,1.966319084
86,1,13.22777778,Teen,1,D,3,3,109,9,0.2,0.8,1,0,0,0,0.286174059
86,1,13.22777778,Teen,1,D,3,3,110,10,0.2,0.8,1,0,0,0,0.367065907
86,1,13.22777778,Teen,1,D,3,3,111,11,0.2,0.8,1,1,1,0,0.269752026
86,1,13.22777778,Teen,1,D,3,3,112,12,0.2,0.8,1,0,1,0,0.336252928
86,1,13.22777778,Teen,1,D,3,3,113,13,0.2,0.8,0,0,1,1,0.319826126
86,1,13.22777778,Teen,1,D,3,3,114,14,0.2,0.8,0,1,1,1,0.319500923
86,1,13.22777778,Teen,1,D,3,3,115,15,0.2,0.8,0,1,0,1,0.303012133
86,1,13.22777778,Teen,1,D,3,3,116,16,0.2,0.8,0,0,0,1,0.319449186
86,1,13.22777778,Teen,1,D,3,3,117,17,0.2,0.8,0,1,1,1,0.336619854
86,1,13.22777778,Teen,1,D,3,3,118,18,0.2,0.8,0,1,0,1,0.286194086
86,1,13.22777778,Teen,1,D,3,3,119,19,0.2,0.8,0,1,0,1,0.31965518
86,1,13.22777778,Teen,1,D,3,3,120,20,0.2,0.8,0,1,0,1,0.38598299
86,1,13.22777778,Teen,1,D,3,3,121,21,0.2,0.8,0,0,0,1,0.469608068
86,1,13.22777778,Teen,1,D,3,3,122,22,0.2,0.8,0,1,1,1,1.935558081
86,1,13.22777778,Teen,1,D,3,3,123,23,0.2,0.8,0,1,0,1,0.936353922
86,1,13.22777778,Teen,1,D,3,3,124,24,0.2,0.8,0,1,0,1,0.303365946
86,1,13.22777778,Teen,1,D,3,3,125,25,0.2,0.8,0,1,0,1,0.486101866
86,1,13.22777778,Teen,1,D,3,3,126,26,0.2,0.8,0,1,0,1,0.686566114
86,1,13.22777778,Teen,1,D,3,3,127,27,0.2,0.8,1,0,0,0,5.318675995
86,1,13.22777778,Teen,1,D,3,3,128,28,0.2,0.8,0,0,1,1,0.302808046
86,1,13.22777778,Teen,1,D,3,3,129,29,0.2,0.8,0,1,0,1,0.336694002
86,1,13.22777778,Teen,1,D,3,3,130,30,0.2,0.8,0,0,0,1,0.369697094
86,1,13.22777778,Teen,1,D,3,3,131,31,0.2,0.8,0,1,0,1,0.586284161
86,1,13.22777778,Teen,1,D,3,3,132,32,0.2,0.8,0,1,0,1,0.33622098
86,1,13.22777778,Teen,1,D,3,3,133,33,0.2,0.8,0,1,0,1,0.336410999
86,1,13.22777778,Teen,1,D,3,3,134,34,0.2,0.8,0,0,0,1,0.419952154
86,1,13.22777778,Teen,1,D,3,3,135,35,0.2,0.8,0,1,0,1,0.502966881
86,1,13.22777778,Teen,1,D,3,3,136,36,0.2,0.8,0,0,1,1,0.586174965
86,1,13.22777778,Teen,1,D,3,3,137,37,0.2,0.8,0,1,0,1,0.50266695
86,1,13.22777778,Teen,1,D,3,3,138,38,0.2,0.8,0,1,0,1,0.351642847
86,1,13.22777778,Teen,1,D,3,3,139,39,0.2,0.8,0,1,0,1,0.401865959
86,1,13.22777778,Teen,1,D,3,3,140,40,0.2,0.8,0,1,0,1,0.401899099
86,1,13.22777778,Teen,1,D,3,3,141,41,0.2,0.8,0,0,0,1,0.551963091
86,1,13.22777778,Teen,1,D,3,3,142,42,0.2,0.8,0,0,1,1,0.235368967
86,1,13.22777778,Teen,1,D,3,3,143,43,0.2,0.8,0,1,0,1,0.351857185
86,1,13.22777778,Teen,1,D,3,3,144,44,0.2,0.8,0,1,1,1,0.335212231
86,1,13.22777778,Teen,1,D,3,3,145,45,0.2,0.8,0,1,0,1,0.418551922
86,1,13.22777778,Teen,1,D,3,3,146,46,0.2,0.8,0,1,0,1,0.318511963
86,1,13.22777778,Teen,1,D,3,3,147,47,0.2,0.8,0,1,0,1,0.535027027
86,1,13.22777778,Teen,1,D,3,3,148,48,0.2,0.8,0,1,0,1,0.433531046
86,1,13.22777778,Teen,1,D,3,3,149,49,0.2,0.8,0,1,1,1,0.285301924
86,1,13.22777778,Teen,1,D,3,3,150,50,0.2,0.8,0,1,1,1,0.285367012
42,1,11.88333333,Kid,0,E,1,2,1,1,0.2,0.8,1,0,0,0,2.002018213
42,1,11.88333333,Kid,0,E,1,2,2,2,0.2,0.8,0,1,1,1,0.418613911
42,1,11.88333333,Kid,0,E,1,2,3,3,0.2,0.8,0,1,0,1,0.718286991
42,1,11.88333333,Kid,0,E,1,2,4,4,0.2,0.8,0,1,0,1,0.769213915
42,1,11.88333333,Kid,0,E,1,2,5,5,0.2,0.8,0,1,1,1,0.969038963
42,1,11.88333333,Kid,0,E,1,2,6,6,0.2,0.8,0,1,0,1,1.484879971
42,1,11.88333333,Kid,0,E,1,2,7,7,0.2,0.8,0,1,1,1,0.435837984
42,1,11.88333333,Kid,0,E,1,2,8,8,0.2,0.8,0,1,0,1,0.485323906
42,1,11.88333333,Kid,0,E,1,2,9,9,0.2,0.8,0,1,0,1,0.351748943
42,1,11.88333333,Kid,0,E,1,2,10,10,0.2,0.8,0,1,1,1,0.502678871
42,1,11.88333333,Kid,0,E,1,2,11,11,0.2,0.8,0,0,1,1,0.735395908
42,1,11.88333333,Kid,0,E,1,2,12,12,0.2,0.8,1,1,1,0,0.418428898
42,1,11.88333333,Kid,0,E,1,2,13,13,0.2,0.8,0,1,0,1,0.568573952
42,1,11.88333333,Kid,0,E,1,2,14,14,0.2,0.8,0,0,0,1,0.452109098
42,1,11.88333333,Kid,0,E,1,2,15,15,0.2,0.8,1,0,0,0,1.218706131
42,1,11.88333333,Kid,0,E,1,2,16,16,0.2,0.8,0,1,0,1,0.36930418
42,1,11.88333333,Kid,0,E,1,2,17,17,0.2,0.8,0,1,0,1,0.035444021
42,1,11.88333333,Kid,0,E,1,2,18,18,0.2,0.8,0,0,0,1,0.185256958
42,1,11.88333333,Kid,0,E,1,2,19,19,0.2,0.8,0,1,0,1,0.319149971
42,1,11.88333333,Kid,0,E,1,2,20,20,0.2,0.8,0,0,0,1,0.585883856
42,1,11.88333333,Kid,0,E,1,2,21,21,0.2,0.8,1,0,0,0,1.834817886
42,1,11.88333333,Kid,0,E,1,2,22,22,0.2,0.8,0,1,0,1,2.334578991
42,1,11.88333333,Kid,0,E,1,2,23,23,0.2,0.8,0,1,0,1,2.549795866
42,1,11.88333333,Kid,0,E,1,2,24,24,0.2,0.8,0,1,0,1,1.4691329
42,1,11.88333333,Kid,0,E,1,2,25,25,0.2,0.8,0,1,1,1,1.019124985
42,1,11.88333333,Kid,0,E,1,2,26,26,0.2,0.8,0,0,0,1,1.519126892
42,1,11.88333333,Kid,0,E,1,2,27,27,0.2,0.8,0,0,0,1,1.819098949
42,1,11.88333333,Kid,0,E,1,2,28,28,0.2,0.8,1,1,1,0,0.903669119
42,1,11.88333333,Kid,0,E,1,2,29,29,0.2,0.8,1,0,0,0,0.43610096
42,1,11.88333333,Kid,0,E,1,2,30,30,0.2,0.8,0,1,0,1,0.487015009
42,1,11.88333333,Kid,0,E,1,2,31,31,0.2,0.8,0,1,0,1,0.286451817
42,1,11.88333333,Kid,0,E,1,2,32,32,0.2,0.8,0,1,0,1,0.486237049
42,1,11.88333333,Kid,0,E,1,2,33,33,0.2,0.8,1,1,0,0,0.502779007
42,1,11.88333333,Kid,0,E,1,2,34,34,0.2,0.8,0,1,0,1,0.919528008
42,1,11.88333333,Kid,0,E,1,2,35,35,0.2,0.8,0,1,1,1,0.452822924
42,1,11.88333333,Kid,0,E,1,2,36,36,0.2,0.8,0,1,0,1,0.386247873
42,1,11.88333333,Kid,0,E,1,2,37,37,0.2,0.8,1,0,0,0,0.487145185
42,1,11.88333333,Kid,0,E,1,2,38,38,0.2,0.8,0,1,1,1,3.035934925
42,1,11.88333333,Kid,0,E,1,2,39,39,0.2,0.8,0,1,0,1,0.450309992
42,1,11.88333333,Kid,0,E,1,2,40,40,0.2,0.8,0,1,0,1,0.05341506
42,1,11.88333333,Kid,0,E,1,2,41,41,0.2,0.8,0,1,1,1,0.103550911
42,1,11.88333333,Kid,0,E,1,2,42,42,0.2,0.8,0,1,1,1,0.187045097
42,1,11.88333333,Kid,0,E,1,2,43,43,0.2,0.8,0,1,1,1,0.270145893
42,1,11.88333333,Kid,0,E,1,2,44,44,0.2,0.8,1,1,0,0,0.070230961
42,1,11.88333333,Kid,0,E,1,2,45,45,0.2,0.8,0,1,0,1,1.169342041
42,1,11.88333333,Kid,0,E,1,2,46,46,0.2,0.8,0,1,0,1,0.436792135
42,1,11.88333333,Kid,0,E,1,2,47,47,0.2,0.8,0,1,1,1,0.470382929
42,1,11.88333333,Kid,0,E,1,2,48,48,0.2,0.8,1,1,0,0,0.419382811
42,1,11.88333333,Kid,0,E,1,2,49,49,0.2,0.8,0,1,0,1,1.069223881
42,1,11.88333333,Kid,0,E,1,2,50,50,0.2,0.8,0,1,0,1,0.603384018
42,1,11.88333333,Kid,0,E,2,1,51,1,0.2,0.8,1,0,1,0,2.253221989
42,1,11.88333333,Kid,0,E,2,1,52,2,0.2,0.8,0,1,0,1,0.353410006
42,1,11.88333333,Kid,0,E,2,1,53,3,0.2,0.8,0,1,0,1,0.320052862
42,1,11.88333333,Kid,0,E,2,1,54,4,0.2,0.8,0,0,1,1,0.320533991
42,1,11.88333333,Kid,0,E,2,1,55,5,0.2,0.8,1,0,0,0,0.785107851
42,1,11.88333333,Kid,0,E,2,1,56,6,0.2,0.8,0,0,1,1,0.285131931
42,1,11.88333333,Kid,0,E,2,1,57,7,0.2,0.8,0,1,0,1,0.367027044
42,1,11.88333333,Kid,0,E,2,1,58,8,0.2,0.8,0,0,1,1,0.870197058
42,1,11.88333333,Kid,0,E,2,1,59,9,0.2,0.8,1,0,0,0,0.270262957
42,1,11.88333333,Kid,0,E,2,1,60,10,0.2,0.8,0,0,1,1,0.436813116
42,1,11.88333333,Kid,0,E,2,1,61,11,0.2,0.8,0,1,0,1,0.320456982
42,1,11.88333333,Kid,0,E,2,1,62,12,0.2,0.8,0,1,0,1,0.319957018
42,1,11.88333333,Kid,0,E,2,1,63,13,0.2,0.8,0,0,1,1,0.319216013
42,1,11.88333333,Kid,0,E,2,1,64,14,0.2,0.8,0,0,0,1,0.420239925
42,1,11.88333333,Kid,0,E,2,1,65,15,0.2,0.8,1,1,0,0,0.252864838
42,1,11.88333333,Kid,0,E,2,1,66,16,0.2,0.8,0,0,0,1,0.352759123
42,1,11.88333333,Kid,0,E,2,1,67,17,0.2,0.8,1,0,1,0,0.402868032
42,1,11.88333333,Kid,0,E,2,1,68,18,0.2,0.8,0,0,0,1,0.469665051
42,1,11.88333333,Kid,0,E,2,1,69,19,0.2,0.8,0,1,0,1,0.286925793
42,1,11.88333333,Kid,0,E,2,1,70,20,0.2,0.8,0,0,0,1,2.685884953
42,1,11.88333333,Kid,0,E,2,1,71,21,0.2,0.8,1,0,0,0,0.236446142
42,1,11.88333333,Kid,0,E,2,1,72,22,0.2,0.8,0,0,1,1,0.303132057
42,1,11.88333333,Kid,0,E,2,1,73,23,0.2,0.8,0,0,0,1,0.786367893
42,1,11.88333333,Kid,0,E,2,1,74,24,0.2,0.8,0,0,1,1,0.402780056
42,1,11.88333333,Kid,0,E,2,1,75,25,0.2,0.8,1,0,0,0,0.302778006
42,1,11.88333333,Kid,0,E,2,1,76,26,0.2,0.8,0,0,0,1,0.353541851
42,1,11.88333333,Kid,0,E,2,1,77,27,0.2,0.8,1,0,0,0,0.386538029
42,1,11.88333333,Kid,0,E,2,1,78,28,0.2,0.8,0,1,0,1,0.318728924
42,1,11.88333333,Kid,0,E,2,1,79,29,0.2,0.8,0,0,0,1,0.352470875
42,1,11.88333333,Kid,0,E,2,1,80,30,0.2,0.8,0,0,0,1,0.486044168
42,1,11.88333333,Kid,0,E,2,1,81,31,0.2,0.8,1,0,1,0,0.335915089
42,1,11.88333333,Kid,0,E,2,1,82,32,0.2,0.8,0,1,0,1,0.569172144
42,1,11.88333333,Kid,0,E,2,1,83,33,0.2,0.8,0,0,0,1,0.568690062
42,1,11.88333333,Kid,0,E,2,1,84,34,0.2,0.8,1,0,0,0,0.735352039
42,1,11.88333333,Kid,0,E,2,1,85,35,0.2,0.8,0,0,0,1,1.485028982
42,1,11.88333333,Kid,0,E,2,1,86,36,0.2,0.8,0,1,0,1,0.968345881
42,1,11.88333333,Kid,0,E,2,1,87,37,0.2,0.8,1,0,1,0,0.536131144
42,1,11.88333333,Kid,0,E,2,1,88,38,0.2,0.8,0,1,0,1,0.469191074
42,1,11.88333333,Kid,0,E,2,1,89,39,0.2,0.8,0,1,0,1,1.136619806
42,1,11.88333333,Kid,0,E,2,1,90,40,0.2,0.8,0,0,1,1,0.93619895
42,1,11.88333333,Kid,0,E,2,1,91,41,0.2,0.8,0,1,0,1,2.019278049
42,1,11.88333333,Kid,0,E,2,1,92,42,0.2,0.8,0,1,0,1,0.852520943
42,1,11.88333333,Kid,0,E,2,1,93,43,0.2,0.8,1,1,0,0,1.416613102
42,1,11.88333333,Kid,0,E,2,1,94,44,0.2,0.8,0,0,0,1,0.287853003
42,1,11.88333333,Kid,0,E,2,1,95,45,0.2,0.8,1,0,1,0,0.402966976
42,1,11.88333333,Kid,0,E,2,1,96,46,0.2,0.8,0,0,0,1,2.251394987
42,1,11.88333333,Kid,0,E,2,1,97,47,0.2,0.8,0,1,0,1,0.551967144
42,1,11.88333333,Kid,0,E,2,1,98,48,0.2,0.8,0,1,0,1,0.301798105
42,1,11.88333333,Kid,0,E,2,1,99,49,0.2,0.8,0,0,0,1,0.351710081
42,1,11.88333333,Kid,0,E,2,1,100,50,0.2,0.8,0,0,0,1,0.335475922
42,1,11.88333333,Kid,0,E,3,3,101,1,0.2,0.8,0,0,0,1,2.302053213
42,1,11.88333333,Kid,0,E,3,3,102,2,0.2,0.8,1,1,1,0,0.251793861
42,1,11.88333333,Kid,0,E,3,3,103,3,0.2,0.8,1,1,1,0,0.43601203
42,1,11.88333333,Kid,0,E,3,3,104,4,0.2,0.8,1,0,1,0,0.219192982
42,1,11.88333333,Kid,0,E,3,3,105,5,0.2,0.8,1,0,0,0,0.151948214
42,1,11.88333333,Kid,0,E,3,3,106,6,0.2,0.8,0,1,0,1,0.018740177
42,1,11.88333333,Kid,0,E,3,3,107,7,0.2,0.8,0,1,0,1,0.168598175
42,1,11.88333333,Kid,0,E,3,3,108,8,0.2,0.8,0,1,1,1,0.251801014
42,1,11.88333333,Kid,0,E,3,3,109,9,0.2,0.8,0,1,0,1,0.419063807
42,1,11.88333333,Kid,0,E,3,3,110,10,0.2,0.8,0,1,0,1,0.085395098
42,1,11.88333333,Kid,0,E,3,3,111,11,0.2,0.8,0,1,0,1,0.301978111
42,1,11.88333333,Kid,0,E,3,3,112,12,0.2,0.8,1,0,1,0,0.269366026
42,1,11.88333333,Kid,0,E,3,3,113,13,0.2,0.8,0,1,1,1,0.650171041
42,1,11.88333333,Kid,0,E,3,3,114,14,0.2,0.8,0,0,1,1,0.452107906
42,1,11.88333333,Kid,0,E,3,3,115,15,0.2,0.8,0,1,0,1,0.26956296
42,1,11.88333333,Kid,0,E,3,3,116,16,0.2,0.8,0,0,1,1,1.468282938
42,1,11.88333333,Kid,0,E,3,3,117,17,0.2,0.8,0,0,1,1,0.285714865
42,1,11.88333333,Kid,0,E,3,3,118,18,0.2,0.8,0,1,0,1,0.485427856
42,1,11.88333333,Kid,0,E,3,3,119,19,0.2,0.8,0,1,0,1,0.469024897
42,1,11.88333333,Kid,0,E,3,3,120,20,0.2,0.8,0,0,1,1,1.186463118
42,1,11.88333333,Kid,0,E,3,3,121,21,0.2,0.8,1,0,0,0,0.235259056
42,1,11.88333333,Kid,0,E,3,3,122,22,0.2,0.8,0,0,0,1,0.220416069
42,1,11.88333333,Kid,0,E,3,3,123,23,0.2,0.8,1,0,0,0,2.434580088
42,1,11.88333333,Kid,0,E,3,3,124,24,0.2,0.8,0,1,0,1,0.318547964
42,1,11.88333333,Kid,0,E,3,3,125,25,0.2,0.8,0,0,1,1,0.869207144
42,1,11.88333333,Kid,0,E,3,3,126,26,0.2,0.8,0,1,0,1,1.168381929
42,1,11.88333333,Kid,0,E,3,3,127,27,0.2,0.8,0,1,0,1,0.48622489
42,1,11.88333333,Kid,0,E,3,3,128,28,0.2,0.8,0,0,1,1,0.352022171
42,1,11.88333333,Kid,0,E,3,3,129,29,0.2,0.8,0,1,0,1,0.486005068
42,1,11.88333333,Kid,0,E,3,3,130,30,0.2,0.8,0,1,0,1,0.318698883
42,1,11.88333333,Kid,0,E,3,3,131,31,0.2,0.8,0,1,0,1,1.268406868
42,1,11.88333333,Kid,0,E,3,3,132,32,0.2,0.8,0,0,0,1,0.585935116
42,1,11.88333333,Kid,0,E,3,3,133,33,0.2,0.8,1,1,1,0,0.235393047
42,1,11.88333333,Kid,0,E,3,3,134,34,0.2,0.8,0,1,0,1,0.369253874
42,1,11.88333333,Kid,0,E,3,3,135,35,0.2,0.8,0,0,0,1,0.400337934
42,1,11.88333333,Kid,0,E,3,3,136,36,0.2,0.8,0,1,1,1,0.702605963
42,1,11.88333333,Kid,0,E,3,3,137,37,0.2,0.8,0,1,0,1,0.252738953
42,1,11.88333333,Kid,0,E,3,3,138,38,0.2,0.8,0,1,0,1,0.318640947
42,1,11.88333333,Kid,0,E,3,3,139,39,0.2,0.8,0,1,1,1,0.385231018
42,1,11.88333333,Kid,0,E,3,3,140,40,0.2,0.8,1,0,0,0,0.302902937
42,1,11.88333333,Kid,0,E,3,3,141,41,0.2,0.8,0,1,1,1,0.135426998
42,1,11.88333333,Kid,0,E,3,3,142,42,0.2,0.8,0,0,1,1,0.386086941
42,1,11.88333333,Kid,0,E,3,3,143,43,0.2,0.8,0,1,0,1,0.468533993
42,1,11.88333333,Kid,0,E,3,3,144,44,0.2,0.8,0,1,1,1,0.485193014
42,1,11.88333333,Kid,0,E,3,3,145,45,0.2,0.8,0,0,1,1,0.336359024
42,1,11.88333333,Kid,0,E,3,3,146,46,0.2,0.8,1,0,0,0,0.484988928
42,1,11.88333333,Kid,0,E,3,3,147,47,0.2,0.8,0,1,0,1,0.385216951
42,1,11.88333333,Kid,0,E,3,3,148,48,0.2,0.8,0,1,1,1,0.48616004
42,1,11.88333333,Kid,0,E,3,3,149,49,0.2,0.8,0,1,0,1,0.468672037
42,1,11.88333333,Kid,0,E,3,3,150,50,0.2,0.8,0,1,0,1,0.535516024
81,1,13.10555556,Teen,1,F,1,3,1,1,0.2,0.8,1,0,0,0,1.951570988
81,1,13.10555556,Teen,1,F,1,3,2,2,0.2,0.8,0,0,0,1,1.135078907
81,1,13.10555556,Teen,1,F,1,3,3,3,0.2,0.8,1,0,0,0,0.585468054
81,1,13.10555556,Teen,1,F,1,3,4,4,0.2,0.8,1,0,0,0,0.651884794
81,1,13.10555556,Teen,1,F,1,3,5,5,0.2,0.8,0,1,1,1,0.435294151
81,1,13.10555556,Teen,1,F,1,3,6,6,0.2,0.8,0,1,1,1,0.501626968
81,1,13.10555556,Teen,1,F,1,3,7,7,0.2,0.8,0,1,0,1,0.75177002
81,1,13.10555556,Teen,1,F,1,3,8,8,0.2,0.8,0,1,1,1,0.268952131
81,1,13.10555556,Teen,1,F,1,3,9,9,0.2,0.8,0,1,1,1,0.285732985
81,1,13.10555556,Teen,1,F,1,3,10,10,0.2,0.8,0,0,1,1,0.268437862
81,1,13.10555556,Teen,1,F,1,3,11,11,0.2,0.8,0,1,1,1,0.352125883
81,1,13.10555556,Teen,1,F,1,3,12,12,0.2,0.8,0,1,0,1,0.435405016
81,1,13.10555556,Teen,1,F,1,3,13,13,0.2,0.8,0,1,0,1,0.301924944
81,1,13.10555556,Teen,1,F,1,3,14,14,0.2,0.8,0,1,1,1,0.335417986
81,1,13.10555556,Teen,1,F,1,3,15,15,0.2,0.8,0,1,0,1,0.335114002
81,1,13.10555556,Teen,1,F,1,3,16,16,0.2,0.8,0,0,1,1,0.401806116
81,1,13.10555556,Teen,1,F,1,3,17,17,0.2,0.8,0,1,0,1,0.301976919
81,1,13.10555556,Teen,1,F,1,3,18,18,0.2,0.8,0,1,0,1,0.401981831
81,1,13.10555556,Teen,1,F,1,3,19,19,0.2,0.8,0,0,0,1,0.2852211
81,1,13.10555556,Teen,1,F,1,3,20,20,0.2,0.8,0,0,0,1,0.301851034
81,1,13.10555556,Teen,1,F,1,3,21,21,0.2,0.8,1,1,0,0,0.302094936
81,1,13.10555556,Teen,1,F,1,3,22,22,0.2,0.8,1,1,0,0,0.385022879
81,1,13.10555556,Teen,1,F,1,3,23,23,0.2,0.8,1,0,0,0,0.368443966
81,1,13.10555556,Teen,1,F,1,3,24,24,0.2,0.8,1,0,0,0,0.352004051
81,1,13.10555556,Teen,1,F,1,3,25,25,0.2,0.8,0,1,0,1,0.266853094
81,1,13.10555556,Teen,1,F,1,3,26,26,0.2,0.8,0,1,0,1,0.435325146
81,1,13.10555556,Teen,1,F,1,3,27,27,0.2,0.8,0,1,0,1,0.28522706
81,1,13.10555556,Teen,1,F,1,3,28,28,0.2,0.8,0,1,0,1,0.435167074
81,1,13.10555556,Teen,1,F,1,3,29,29,0.2,0.8,0,0,0,1,0.568692923
81,1,13.10555556,Teen,1,F,1,3,30,30,0.2,0.8,1,0,1,0,0.501958847
81,1,13.10555556,Teen,1,F,1,3,31,31,0.2,0.8,0,1,0,1,0.601585865
81,1,13.10555556,Teen,1,F,1,3,32,32,0.2,0.8,0,0,0,1,0.46862483
81,1,13.10555556,Teen,1,F,1,3,33,33,0.2,0.8,0,1,0,1,0.268764973
81,1,13.10555556,Teen,1,F,1,3,34,34,0.2,0.8,0,1,0,1,0.385195017
81,1,13.10555556,Teen,1,F,1,3,35,35,0.2,0.8,0,1,0,1,0.268717051
81,1,13.10555556,Teen,1,F,1,3,36,36,0.2,0.8,0,1,1,1,0.468669176
81,1,13.10555556,Teen,1,F,1,3,37,37,0.2,0.8,0,1,0,1,0.418383121
81,1,13.10555556,Teen,1,F,1,3,38,38,0.2,0.8,0,1,0,1,0.368689775
81,1,13.10555556,Teen,1,F,1,3,39,39,0.2,0.8,0,0,0,1,0.352005005
81,1,13.10555556,Teen,1,F,1,3,40,40,0.2,0.8,0,1,0,1,0.301937819
81,1,13.10555556,Teen,1,F,1,3,41,41,0.2,0.8,0,0,0,1,0.333621979
81,1,13.10555556,Teen,1,F,1,3,42,42,0.2,0.8,0,0,0,1,0.301708937
81,1,13.10555556,Teen,1,F,1,3,43,43,0.2,0.8,1,1,0,0,0.43503499
81,1,13.10555556,Teen,1,F,1,3,44,44,0.2,0.8,1,0,1,0,0.402040958
81,1,13.10555556,Teen,1,F,1,3,45,45,0.2,0.8,0,0,0,1,0.502002954
81,1,13.10555556,Teen,1,F,1,3,46,46,0.2,0.8,0,1,0,1,0.318581104
81,1,13.10555556,Teen,1,F,1,3,47,47,0.2,0.8,0,1,0,1,0.468638897
81,1,13.10555556,Teen,1,F,1,3,48,48,0.2,0.8,0,1,0,1,0.501836061
81,1,13.10555556,Teen,1,F,1,3,49,49,0.2,0.8,0,1,1,1,0.402006865
81,1,13.10555556,Teen,1,F,1,3,50,50,0.2,0.8,0,0,1,1,0.352004051
81,1,13.10555556,Teen,1,F,2,2,51,1,0.2,0.8,0,1,1,1,2.318091154
81,1,13.10555556,Teen,1,F,2,2,52,2,0.2,0.8,0,1,0,1,0.351893187
81,1,13.10555556,Teen,1,F,2,2,53,3,0.2,0.8,0,1,1,1,0.318758011
81,1,13.10555556,Teen,1,F,2,2,54,4,0.2,0.8,1,0,0,0,0.352196932
81,1,13.10555556,Teen,1,F,2,2,55,5,0.2,0.8,0,1,1,1,0.435311079
81,1,13.10555556,Teen,1,F,2,2,56,6,0.2,0.8,0,1,0,1,0.285502911
81,1,13.10555556,Teen,1,F,2,2,57,7,0.2,0.8,0,1,1,1,0.31859684
81,1,13.10555556,Teen,1,F,2,2,58,8,0.2,0.8,0,1,1,1,0.401769161
81,1,13.10555556,Teen,1,F,2,2,59,9,0.2,0.8,0,0,0,1,0.335408926
81,1,13.10555556,Teen,1,F,2,2,60,10,0.2,0.8,0,1,0,1,0.318448782
81,1,13.10555556,Teen,1,F,2,2,61,11,0.2,0.8,0,1,1,1,0.218971968
81,1,13.10555556,Teen,1,F,2,2,62,12,0.2,0.8,0,0,0,1,0.301944017
81,1,13.10555556,Teen,1,F,2,2,63,13,0.2,0.8,0,1,0,1,0.350332975
81,1,13.10555556,Teen,1,F,2,2,64,14,0.2,0.8,0,1,1,1,0.735056877
81,1,13.10555556,Teen,1,F,2,2,65,15,0.2,0.8,0,1,0,1,0.434975147
81,1,13.10555556,Teen,1,F,2,2,66,16,0.2,0.8,0,0,0,1,0.268558979
81,1,13.10555556,Teen,1,F,2,2,67,17,0.2,0.8,0,1,1,1,0.485220194
81,1,13.10555556,Teen,1,F,2,2,68,18,0.2,0.8,0,1,0,1,0.50187993
81,1,13.10555556,Teen,1,F,2,2,69,19,0.2,0.8,0,1,1,1,0.601907015
81,1,13.10555556,Teen,1,F,2,2,70,20,0.2,0.8,0,0,0,1,0.285186052
81,1,13.10555556,Teen,1,F,2,2,71,21,0.2,0.8,0,1,1,1,0.28538394
81,1,13.10555556,Teen,1,F,2,2,72,22,0.2,0.8,0,1,0,1,0.634982824
81,1,13.10555556,Teen,1,F,2,2,73,23,0.2,0.8,0,1,1,1,0.285245895
81,1,13.10555556,Teen,1,F,2,2,74,24,0.2,0.8,0,1,0,1,0.400408983
81,1,13.10555556,Teen,1,F,2,2,75,25,0.2,0.8,1,0,0,0,0.28518796
81,1,13.10555556,Teen,1,F,2,2,76,26,0.2,0.8,0,0,0,1,0.335315943
81,1,13.10555556,Teen,1,F,2,2,77,27,0.2,0.8,0,1,0,1,0.501789808
81,1,13.10555556,Teen,1,F,2,2,78,28,0.2,0.8,0,1,1,1,0.285397053
81,1,13.10555556,Teen,1,F,2,2,79,29,0.2,0.8,0,1,0,1,0.468707085
81,1,13.10555556,Teen,1,F,2,2,80,30,0.2,0.8,0,1,1,1,0.368419886
81,1,13.10555556,Teen,1,F,2,2,81,31,0.2,0.8,0,0,0,1,0.535309076
81,1,13.10555556,Teen,1,F,2,2,82,32,0.2,0.8,0,1,0,1,0.83501792
81,1,13.10555556,Teen,1,F,2,2,83,33,0.2,0.8,0,1,1,1,0.568562984
81,1,13.10555556,Teen,1,F,2,2,84,34,0.2,0.8,0,1,0,1,0.352025986
81,1,13.10555556,Teen,1,F,2,2,85,35,0.2,0.8,0,1,1,1,0.40195322
81,1,13.10555556,Teen,1,F,2,2,86,36,0.2,0.8,0,1,0,1,0.435452938
81,1,13.10555556,Teen,1,F,2,2,87,37,0.2,0.8,1,0,0,0,0.418532133
81,1,13.10555556,Teen,1,F,2,2,88,38,0.2,0.8,0,1,1,1,0.318361044
81,1,13.10555556,Teen,1,F,2,2,89,39,0.2,0.8,0,1,0,1,0.401926994
81,1,13.10555556,Teen,1,F,2,2,90,40,0.2,0.8,0,1,1,1,0.235487938
81,1,13.10555556,Teen,1,F,2,2,91,41,0.2,0.8,0,1,0,1,0.268594027
81,1,13.10555556,Teen,1,F,2,2,92,42,0.2,0.8,0,1,1,1,0.40198493
81,1,13.10555556,Teen,1,F,2,2,93,43,0.2,0.8,0,1,0,1,0.401857138
81,1,13.10555556,Teen,1,F,2,2,94,44,0.2,0.8,0,1,1,1,0.418642998
81,1,13.10555556,Teen,1,F,2,2,95,45,0.2,0.8,0,0,0,1,0.401926994
81,1,13.10555556,Teen,1,F,2,2,96,46,0.2,0.8,0,1,1,1,0.268527985
81,1,13.10555556,Teen,1,F,2,2,97,47,0.2,0.8,0,1,0,1,0.119046211
81,1,13.10555556,Teen,1,F,2,2,98,48,0.2,0.8,0,1,1,1,0.318820953
81,1,13.10555556,Teen,1,F,2,2,99,49,0.2,0.8,0,0,0,1,0.551890135
81,1,13.10555556,Teen,1,F,2,2,100,50,0.2,0.8,0,1,0,1,0.385383844
81,1,13.10555556,Teen,1,F,3,1,101,1,0.8,0.2,0,0,1,0,1.21669507
81,1,13.10555556,Teen,1,F,3,1,102,2,0.8,0.2,1,1,0,1,0.368556976
81,1,13.10555556,Teen,1,F,3,1,103,3,0.8,0.2,1,1,0,1,0.033666849
81,1,13.10555556,Teen,1,F,3,1,104,4,0.8,0.2,1,0,1,1,0.31842804
81,1,13.10555556,Teen,1,F,3,1,105,5,0.8,0.2,1,0,0,1,0.318619967
81,1,13.10555556,Teen,1,F,3,1,106,6,0.8,0.2,1,1,0,1,0.28538084
81,1,13.10555556,Teen,1,F,3,1,107,7,0.8,0.2,1,0,1,1,0.485379934
81,1,13.10555556,Teen,1,F,3,1,108,8,0.8,0.2,1,0,0,1,0.735355854
81,1,13.10555556,Teen,1,F,3,1,109,9,0.8,0.2,1,1,0,1,0.335274935
81,1,13.10555556,Teen,1,F,3,1,110,10,0.8,0.2,1,1,0,1,0.751976967
81,1,13.10555556,Teen,1,F,3,1,111,11,0.8,0.2,1,1,0,1,0.40169096
81,1,13.10555556,Teen,1,F,3,1,112,12,0.8,0.2,1,1,0,1,0.701960087
81,1,13.10555556,Teen,1,F,3,1,113,13,0.8,0.2,1,0,0,1,0.433681011
81,1,13.10555556,Teen,1,F,3,1,114,14,0.8,0.2,1,1,0,1,0.5519979
81,1,13.10555556,Teen,1,F,3,1,115,15,0.8,0.2,1,0,1,1,0.38520813
81,1,13.10555556,Teen,1,F,3,1,116,16,0.8,0.2,1,0,0,1,0.285309076
81,1,13.10555556,Teen,1,F,3,1,117,17,0.8,0.2,1,0,1,1,0.383485079
81,1,13.10555556,Teen,1,F,3,1,118,18,0.8,0.2,1,1,0,1,0.451967955
81,1,13.10555556,Teen,1,F,3,1,119,19,0.8,0.2,1,1,0,1,0.535088062
81,1,13.10555556,Teen,1,F,3,1,120,20,0.8,0.2,1,1,0,1,0.518642902
81,1,13.10555556,Teen,1,F,3,1,121,21,0.8,0.2,1,1,0,1,0.635152817
81,1,13.10555556,Teen,1,F,3,1,122,22,0.8,0.2,1,1,0,1,0.518684864
81,1,13.10555556,Teen,1,F,3,1,123,23,0.8,0.2,1,0,0,1,0.335366011
81,1,13.10555556,Teen,1,F,3,1,124,24,0.8,0.2,1,1,0,1,0.252166986
81,1,13.10555556,Teen,1,F,3,1,125,25,0.8,0.2,1,0,1,1,0.268504143
81,1,13.10555556,Teen,1,F,3,1,126,26,0.8,0.2,1,1,0,1,0.101747036
81,1,13.10555556,Teen,1,F,3,1,127,27,0.8,0.2,1,0,1,1,0.351543903
81,1,13.10555556,Teen,1,F,3,1,128,28,0.8,0.2,1,1,0,1,0.485255957
81,1,13.10555556,Teen,1,F,3,1,129,29,0.8,0.2,1,1,0,1,0.801761866
81,1,13.10555556,Teen,1,F,3,1,130,30,0.8,0.2,1,1,0,1,0.28544116
81,1,13.10555556,Teen,1,F,3,1,131,31,0.8,0.2,1,0,1,1,0.401928186
81,1,13.10555556,Teen,1,F,3,1,132,32,0.8,0.2,1,0,0,1,1.385042906
81,1,13.10555556,Teen,1,F,3,1,133,33,0.8,0.2,1,1,0,1,1.051384926
81,1,13.10555556,Teen,1,F,3,1,134,34,0.8,0.2,1,1,0,1,0.585397959
81,1,13.10555556,Teen,1,F,3,1,135,35,0.8,0.2,1,0,0,1,0.568603992
81,1,13.10555556,Teen,1,F,3,1,136,36,0.8,0.2,1,1,0,1,0.401945114
81,1,13.10555556,Teen,1,F,3,1,137,37,0.8,0.2,1,1,0,1,0.751913071
81,1,13.10555556,Teen,1,F,3,1,138,38,0.8,0.2,1,0,1,1,0.418564081
81,1,13.10555556,Teen,1,F,3,1,139,39,0.8,0.2,1,0,0,1,0.418475866
81,1,13.10555556,Teen,1,F,3,1,140,40,0.8,0.2,1,0,1,1,0.168664932
81,1,13.10555556,Teen,1,F,3,1,141,41,0.8,0.2,1,0,0,1,0.218527794
81,1,13.10555556,Teen,1,F,3,1,142,42,0.8,0.2,0,0,1,0,0.25205183
81,1,13.10555556,Teen,1,F,3,1,143,43,0.8,0.2,1,1,0,1,0.451853991
81,1,13.10555556,Teen,1,F,3,1,144,44,0.8,0.2,1,1,0,1,0.418646097
81,1,13.10555556,Teen,1,F,3,1,145,45,0.8,0.2,1,0,1,1,0.417146921
81,1,13.10555556,Teen,1,F,3,1,146,46,0.8,0.2,1,0,0,1,0.418498993
81,1,13.10555556,Teen,1,F,3,1,147,47,0.8,0.2,1,0,0,1,0.335399866
81,1,13.10555556,Teen,1,F,3,1,148,48,0.8,0.2,1,1,0,1,0.251867056
81,1,13.10555556,Teen,1,F,3,1,149,49,0.8,0.2,1,0,1,1,0.418560028
81,1,13.10555556,Teen,1,F,3,1,150,50,0.8,0.2,1,1,0,1,0.418879032
45,1,11.64444444,Kid,0,C,1,3,1,1,0.2,0.8,1,1,0,0,1.385993004
45,1,11.64444444,Kid,0,C,1,3,2,2,0.2,0.8,0,0,0,1,0.386355162
45,1,11.64444444,Kid,0,C,1,3,3,3,0.2,0.8,1,0,0,0,0.369477987
45,1,11.64444444,Kid,0,C,1,3,4,4,0.2,0.8,1,0,0,0,0.319713831
45,1,11.64444444,Kid,0,C,1,3,5,5,0.2,0.8,0,0,0,1,0.302933931
45,1,11.64444444,Kid,0,C,1,3,6,6,0.2,0.8,1,0,0,0,0.501733065
45,1,11.64444444,Kid,0,C,1,3,7,7,0.2,0.8,1,0,1,0,0.45284915
45,1,11.64444444,Kid,0,C,1,3,8,8,0.2,0.8,0,0,1,1,0.668400049
45,1,11.64444444,Kid,0,C,1,3,9,9,0.2,0.8,0,1,1,1,0.385216951
45,1,11.64444444,Kid,0,C,1,3,10,10,0.2,0.8,0,1,1,1,1.918004036
45,1,11.64444444,Kid,0,C,1,3,11,11,0.2,0.8,0,1,1,1,0.318567038
45,1,11.64444444,Kid,0,C,1,3,12,12,0.2,0.8,0,1,1,1,1.501150846
45,1,11.64444444,Kid,0,C,1,3,13,13,0.2,0.8,0,0,1,1,0.301472902
45,1,11.64444444,Kid,0,C,1,3,14,14,0.2,0.8,1,0,1,0,0.301578045
45,1,11.64444444,Kid,0,C,1,3,15,15,0.2,0.8,0,0,1,1,0.30208993
45,1,11.64444444,Kid,0,C,1,3,16,16,0.2,0.8,1,0,1,0,0.535111904
45,1,11.64444444,Kid,0,C,1,3,17,17,0.2,0.8,1,0,1,0,7.466611147
45,1,11.64444444,Kid,0,C,1,3,18,18,0.2,0.8,0,0,1,1,5.350636005
45,1,11.64444444,Kid,0,C,1,3,19,19,0.2,0.8,0,1,1,1,0.818390131
45,1,11.64444444,Kid,0,C,1,3,20,20,0.2,0.8,0,0,1,1,0.383539915
45,1,11.64444444,Kid,0,C,1,3,21,21,0.2,0.8,1,0,1,0,0.484835863
45,1,11.64444444,Kid,0,C,1,3,22,22,0.2,0.8,0,0,1,1,0.300252199
45,1,11.64444444,Kid,0,C,1,3,23,23,0.2,0.8,1,0,1,0,0.368755102
45,1,11.64444444,Kid,0,C,1,3,24,24,0.2,0.8,0,1,1,1,0.251987219
45,1,11.64444444,Kid,0,C,1,3,25,25,0.2,0.8,0,0,1,1,0.135346889
45,1,11.64444444,Kid,0,C,1,3,26,26,0.2,0.8,0,1,1,1,0.334939003
45,1,11.64444444,Kid,0,C,1,3,27,27,0.2,0.8,0,1,1,1,0.433793068
45,1,11.64444444,Kid,0,C,1,3,28,28,0.2,0.8,0,1,1,1,0.268723965
45,1,11.64444444,Kid,0,C,1,3,29,29,0.2,0.8,0,0,0,1,0.318743944
45,1,11.64444444,Kid,0,C,1,3,30,30,0.2,0.8,0,0,0,1,0.435269117
45,1,11.64444444,Kid,0,C,1,3,31,31,0.2,0.8,0,1,1,1,1.235193968
45,1,11.64444444,Kid,0,C,1,3,32,32,0.2,0.8,0,1,1,1,0.368685961
45,1,11.64444444,Kid,0,C,1,3,33,33,0.2,0.8,0,1,0,1,0.552056074
45,1,11.64444444,Kid,0,C,1,3,34,34,0.2,0.8,1,0,0,0,0.335395098
45,1,11.64444444,Kid,0,C,1,3,35,35,0.2,0.8,0,1,1,1,0.335351944
45,1,11.64444444,Kid,0,C,1,3,36,36,0.2,0.8,0,0,1,1,0.085330009
45,1,11.64444444,Kid,0,C,1,3,37,37,0.2,0.8,0,1,1,1,0.402421951
45,1,11.64444444,Kid,0,C,1,3,38,38,0.2,0.8,0,1,1,1,0.300314903
45,1,11.64444444,Kid,0,C,1,3,39,39,0.2,0.8,0,1,1,1,0.302115917
45,1,11.64444444,Kid,0,C,1,3,40,40,0.2,0.8,1,0,1,0,0.351809978
45,1,11.64444444,Kid,0,C,1,3,41,41,0.2,0.8,0,0,1,1,0.335282803
45,1,11.64444444,Kid,0,C,1,3,42,42,0.2,0.8,0,1,1,1,0.318653822
45,1,11.64444444,Kid,0,C,1,3,43,43,0.2,0.8,0,1,1,1,0.318616152
45,1,11.64444444,Kid,0,C,1,3,44,44,0.2,0.8,0,1,1,1,0.435518026
45,1,11.64444444,Kid,0,C,1,3,45,45,0.2,0.8,0,0,1,1,0.268721819
45,1,11.64444444,Kid,0,C,1,3,46,46,0.2,0.8,0,1,1,1,0.385320902
45,1,11.64444444,Kid,0,C,1,3,47,47,0.2,0.8,0,1,1,1,0.285393953
45,1,11.64444444,Kid,0,C,1,3,48,48,0.2,0.8,0,1,1,1,0.268689156
45,1,11.64444444,Kid,0,C,1,3,49,49,0.2,0.8,0,0,1,1,0.302002907
45,1,11.64444444,Kid,0,C,1,3,50,50,0.2,0.8,0,0,0,1,0.551887989
45,1,11.64444444,Kid,0,C,2,1,51,1,0.8,0.2,1,0,1,1,2.50120306
45,1,11.64444444,Kid,0,C,2,1,52,2,0.8,0.2,1,0,1,1,0.368736029
45,1,11.64444444,Kid,0,C,2,1,53,3,0.8,0.2,0,0,1,0,0.31872201
45,1,11.64444444,Kid,0,C,2,1,54,4,0.8,0.2,0,0,1,0,0.168740034
45,1,11.64444444,Kid,0,C,2,1,55,5,0.8,0.2,0,1,0,0,0.518465996
45,1,11.64444444,Kid,0,C,2,1,56,6,0.8,0.2,0,0,0,0,0.285343885
45,1,11.64444444,Kid,0,C,2,1,57,7,0.8,0.2,0,0,1,0,0.751835823
45,1,11.64444444,Kid,0,C,2,1,58,8,0.8,0.2,1,0,0,1,0.66811204
45,1,11.64444444,Kid,0,C,2,1,59,9,0.8,0.2,0,1,0,0,0.535175085
45,1,11.64444444,Kid,0,C,2,1,60,10,0.8,0.2,0,0,1,0,0.818600893
45,1,11.64444444,Kid,0,C,2,1,61,11,0.8,0.2,0,0,1,0,0.385203123
45,1,11.64444444,Kid,0,C,2,1,62,12,0.8,0.2,0,0,1,0,0.418521881
45,1,11.64444444,Kid,0,C,2,1,63,13,0.8,0.2,0,0,1,0,0.551923037
45,1,11.64444444,Kid,0,C,2,1,64,14,0.8,0.2,0,0,1,0,0.485011101
45,1,11.64444444,Kid,0,C,2,1,65,15,0.8,0.2,0,1,0,0,0.318638086
45,1,11.64444444,Kid,0,C,2,1,66,16,0.8,0.2,0,0,1,0,0.734838963
45,1,11.64444444,Kid,0,C,2,1,67,17,0.8,0.2,0,0,1,0,0.419080973
45,1,11.64444444,Kid,0,C,2,1,68,18,0.8,0.2,0,0,1,0,1.135064125
45,1,11.64444444,Kid,0,C,2,1,69,19,0.8,0.2,0,0,1,0,0.485166073
45,1,11.64444444,Kid,0,C,2,1,70,20,0.8,0.2,0,0,1,0,0.635256052
45,1,11.64444444,Kid,0,C,2,1,71,21,0.8,0.2,0,0,1,0,0.318645954
45,1,11.64444444,Kid,0,C,2,1,72,22,0.8,0.2,0,0,1,0,0.285552979
45,1,11.64444444,Kid,0,C,2,1,73,23,0.8,0.2,0,0,1,0,0.451919079
45,1,11.64444444,Kid,0,C,2,1,74,24,0.8,0.2,0,0,1,0,0.318627119
45,1,11.64444444,Kid,0,C,2,1,75,25,0.8,0.2,0,0,1,0,0.285377979
45,1,11.64444444,Kid,0,C,2,1,76,26,0.8,0.2,0,0,1,0,0.585276127
45,1,11.64444444,Kid,0,C,2,1,77,27,0.8,0.2,1,1,1,1,0.535273075
45,1,11.64444444,Kid,0,C,2,1,78,28,0.8,0.2,1,0,0,1,0.418612003
45,1,11.64444444,Kid,0,C,2,1,79,29,0.8,0.2,0,0,1,0,0.31848979
45,1,11.64444444,Kid,0,C,2,1,80,30,0.8,0.2,1,0,1,1,0.302019835
45,1,11.64444444,Kid,0,C,2,1,81,31,0.8,0.2,1,1,0,1,0.385159969
45,1,11.64444444,Kid,0,C,2,1,82,32,0.8,0.2,1,1,0,1,0.785466909
45,1,11.64444444,Kid,0,C,2,1,83,33,0.8,0.2,1,1,0,1,0.018813133
45,1,11.64444444,Kid,0,C,2,1,84,34,0.8,0.2,1,0,1,1,0.052022934
45,1,11.64444444,Kid,0,C,2,1,85,35,0.8,0.2,1,0,1,1,0.168700933
45,1,11.64444444,Kid,0,C,2,1,86,36,0.8,0.2,0,0,1,0,0.018738031
45,1,11.64444444,Kid,0,C,2,1,87,37,0.8,0.2,1,0,1,1,0.435214996
45,1,11.64444444,Kid,0,C,2,1,88,38,0.8,0.2,0,0,1,0,1.884745121
45,1,11.64444444,Kid,0,C,2,1,89,39,0.8,0.2,0,0,1,0,0.218782902
45,1,11.64444444,Kid,0,C,2,1,90,40,0.8,0.2,0,1,0,0,0.452208042
45,1,11.64444444,Kid,0,C,2,1,91,41,0.8,0.2,0,0,1,0,0.235373974
45,1,11.64444444,Kid,0,C,2,1,92,42,0.8,0.2,0,0,1,0,0.451770067
45,1,11.64444444,Kid,0,C,2,1,93,43,0.8,0.2,0,0,1,0,0.835162878
45,1,11.64444444,Kid,0,C,2,1,94,44,0.8,0.2,1,1,1,1,0.402039051
45,1,11.64444444,Kid,0,C,2,1,95,45,0.8,0.2,1,1,1,1,0.085575104
45,1,11.64444444,Kid,0,C,2,1,96,46,0.8,0.2,1,0,0,1,0.252200127
45,1,11.64444444,Kid,0,C,2,1,97,47,0.8,0.2,1,0,1,1,0.718687057
45,1,11.64444444,Kid,0,C,2,1,98,48,0.8,0.2,0,0,0,0,0.36845088
45,1,11.64444444,Kid,0,C,2,1,99,49,0.8,0.2,0,0,1,0,1.518399954
45,1,11.64444444,Kid,0,C,2,1,100,50,0.8,0.2,0,0,1,0,1.685208082
45,1,11.64444444,Kid,0,C,3,2,101,1,0.8,0.2,1,1,1,1,1.901592016
45,1,11.64444444,Kid,0,C,3,2,102,2,0.8,0.2,1,1,1,1,0.285360098
45,1,11.64444444,Kid,0,C,3,2,103,3,0.8,0.2,1,1,1,1,0.302161932
45,1,11.64444444,Kid,0,C,3,2,104,4,0.8,0.2,1,1,1,1,0.152132034
45,1,11.64444444,Kid,0,C,3,2,105,5,0.8,0.2,1,1,1,1,0.285367966
45,1,11.64444444,Kid,0,C,3,2,106,6,0.8,0.2,1,0,0,1,0.235589027
45,1,11.64444444,Kid,0,C,3,2,107,7,0.8,0.2,1,1,1,1,0.318768978
45,1,11.64444444,Kid,0,C,3,2,108,8,0.8,0.2,1,1,1,1,0.11872077
45,1,11.64444444,Kid,0,C,3,2,109,9,0.8,0.2,1,1,1,1,0.201922178
45,1,11.64444444,Kid,0,C,3,2,110,10,0.8,0.2,1,1,1,1,0.318500996
45,1,11.64444444,Kid,0,C,3,2,111,11,0.8,0.2,1,1,1,1,0.285323858
45,1,11.64444444,Kid,0,C,3,2,112,12,0.8,0.2,0,1,0,0,0.267010927
45,1,11.64444444,Kid,0,C,3,2,113,13,0.8,0.2,0,0,0,0,0.769294024
45,1,11.64444444,Kid,0,C,3,2,114,14,0.8,0.2,1,1,1,1,0.30299902
45,1,11.64444444,Kid,0,C,3,2,115,15,0.8,0.2,1,1,1,1,0.35315609
45,1,11.64444444,Kid,0,C,3,2,116,16,0.8,0.2,1,1,1,1,0.236545801
45,1,11.64444444,Kid,0,C,3,2,117,17,0.8,0.2,1,0,0,1,0.470028162
45,1,11.64444444,Kid,0,C,3,2,118,18,0.8,0.2,1,1,1,1,0.101976156
45,1,11.64444444,Kid,0,C,3,2,119,19,0.8,0.2,1,1,1,1,0.651728153
45,1,11.64444444,Kid,0,C,3,2,120,20,0.8,0.2,1,1,1,1,1.051802874
45,1,11.64444444,Kid,0,C,3,2,121,21,0.8,0.2,1,1,1,1,0.435466051
45,1,11.64444444,Kid,0,C,3,2,122,22,0.8,0.2,1,1,1,1,0.435338974
45,1,11.64444444,Kid,0,C,3,2,123,23,0.8,0.2,1,0,0,1,0.468662977
45,1,11.64444444,Kid,0,C,3,2,124,24,0.8,0.2,1,1,1,1,0.618563175
45,1,11.64444444,Kid,0,C,3,2,125,25,0.8,0.2,1,1,1,1,0.35226202
45,1,11.64444444,Kid,0,C,3,2,126,26,0.8,0.2,1,1,1,1,0.002184868
45,1,11.64444444,Kid,0,C,3,2,127,27,0.8,0.2,1,1,1,1,0.885421038
45,1,11.64444444,Kid,0,C,3,2,128,28,0.8,0.2,1,1,1,1,0.302135944
45,1,11.64444444,Kid,0,C,3,2,129,29,0.8,0.2,1,1,1,1,0.435284138
45,1,11.64444444,Kid,0,C,3,2,130,30,0.8,0.2,1,1,1,1,1.468370199
45,1,11.64444444,Kid,0,C,3,2,131,31,0.8,0.2,1,0,0,1,0.685137987
45,1,11.64444444,Kid,0,C,3,2,132,32,0.8,0.2,0,1,1,0,0.318888903
45,1,11.64444444,Kid,0,C,3,2,133,33,0.8,0.2,0,0,0,0,0.335101128
45,1,11.64444444,Kid,0,C,3,2,134,34,0.8,0.2,1,1,1,1,0.269826174
45,1,11.64444444,Kid,0,C,3,2,135,35,0.8,0.2,1,1,1,1,0.486353159
45,1,11.64444444,Kid,0,C,3,2,136,36,0.8,0.2,1,1,1,1,0.50206399
45,1,11.64444444,Kid,0,C,3,2,137,37,0.8,0.2,1,1,1,1,0.402159214
45,1,11.64444444,Kid,0,C,3,2,138,38,0.8,0.2,1,1,1,1,1.184989929
45,1,11.64444444,Kid,0,C,3,2,139,39,0.8,0.2,1,1,1,1,0.101986885
45,1,11.64444444,Kid,0,C,3,2,140,40,0.8,0.2,1,1,1,1,0.685344934
45,1,11.64444444,Kid,0,C,3,2,141,41,0.8,0.2,1,1,1,1,0.801949978
45,1,11.64444444,Kid,0,C,3,2,142,42,0.8,0.2,1,1,1,1,0.419024944
45,1,11.64444444,Kid,0,C,3,2,143,43,0.8,0.2,1,0,0,1,0.285492897
45,1,11.64444444,Kid,0,C,3,2,144,44,0.8,0.2,1,0,0,1,0.368746042
45,1,11.64444444,Kid,0,C,3,2,145,45,0.8,0.2,1,1,1,1,0.318772078
45,1,11.64444444,Kid,0,C,3,2,146,46,0.8,0.2,1,1,1,1,0.302115917
45,1,11.64444444,Kid,0,C,3,2,147,47,0.8,0.2,1,1,1,1,0.502275944
45,1,11.64444444,Kid,0,C,3,2,148,48,0.8,0.2,0,0,0,0,0.318953037
45,1,11.64444444,Kid,0,C,3,2,149,49,0.8,0.2,1,1,1,1,0.28551507
45,1,11.64444444,Kid,0,C,3,2,150,50,0.8,0.2,1,1,1,1,1.718445778
1,1,17.73055556,Teen,0,B,1,2,1,1,0.8,0.2,1,1,0,1,2.034743071
1,1,17.73055556,Teen,0,B,1,2,2,2,0.8,0.2,1,1,0,1,1.118404865
1,1,17.73055556,Teen,0,B,1,2,3,3,0.8,0.2,1,1,1,1,0.518289089
1,1,17.73055556,Teen,0,B,1,2,4,4,0.8,0.2,1,0,0,1,1.568072081
1,1,17.73055556,Teen,0,B,1,2,5,5,0.8,0.2,1,1,1,1,0.735137939
1,1,17.73055556,Teen,0,B,1,2,6,6,0.8,0.2,1,1,1,1,2.484972954
1,1,17.73055556,Teen,0,B,1,2,7,7,0.8,0.2,1,1,1,1,0.351909876
1,1,17.73055556,Teen,0,B,1,2,8,8,0.8,0.2,1,0,0,1,0.00211215
1,1,17.73055556,Teen,0,B,1,2,9,9,0.8,0.2,1,1,1,1,0.885175943
1,1,17.73055556,Teen,0,B,1,2,10,10,0.8,0.2,1,1,1,1,0.968302011
1,1,17.73055556,Teen,0,B,1,2,11,11,0.8,0.2,1,1,1,1,0.435118914
1,1,17.73055556,Teen,0,B,1,2,12,12,0.8,0.2,1,1,1,1,0.633435011
1,1,17.73055556,Teen,0,B,1,2,13,13,0.8,0.2,1,0,0,1,0.518479824
1,1,17.73055556,Teen,0,B,1,2,14,14,0.8,0.2,1,1,1,1,0.618617058
1,1,17.73055556,Teen,0,B,1,2,15,15,0.8,0.2,1,1,1,1,0.535172939
1,1,17.73055556,Teen,0,B,1,2,16,16,0.8,0.2,1,1,0,1,0.40186882
1,1,17.73055556,Teen,0,B,1,2,17,17,0.8,0.2,1,1,0,1,0.252090931
1,1,17.73055556,Teen,0,B,1,2,18,18,0.8,0.2,1,1,1,1,0.268635035
1,1,17.73055556,Teen,0,B,1,2,19,19,0.8,0.2,1,1,0,1,0.068726063
1,1,17.73055556,Teen,0,B,1,2,20,20,0.8,0.2,1,1,0,1,0.235229015
1,1,17.73055556,Teen,0,B,1,2,21,21,0.8,0.2,1,1,0,1,0.035384893
1,1,17.73055556,Teen,0,B,1,2,22,22,0.8,0.2,1,1,1,1,0.202162981
1,1,17.73055556,Teen,0,B,1,2,23,23,0.8,0.2,1,1,0,1,0.651716948
1,1,17.73055556,Teen,0,B,1,2,24,24,0.8,0.2,1,1,1,1,0.218452215
1,1,17.73055556,Teen,0,B,1,2,25,25,0.8,0.2,1,1,1,1,0.235383987
1,1,17.73055556,Teen,0,B,1,2,26,26,0.8,0.2,1,1,0,1,0.468436956
1,1,17.73055556,Teen,0,B,1,2,27,27,0.8,0.2,1,1,1,1,0.918379068
1,1,17.73055556,Teen,0,B,1,2,28,28,0.8,0.2,1,1,1,1,0.535058975
1,1,17.73055556,Teen,0,B,1,2,29,29,0.8,0.2,1,1,1,1,0.351856947
1,1,17.73055556,Teen,0,B,1,2,30,30,0.8,0.2,1,1,0,1,0.235351086
1,1,17.73055556,Teen,0,B,1,2,31,31,0.8,0.2,1,1,0,1,0.235065937
1,1,17.73055556,Teen,0,B,1,2,32,32,0.8,0.2,1,0,0,1,0.402030945
1,1,17.73055556,Teen,0,B,1,2,33,33,0.8,0.2,1,1,1,1,0.552026987
1,1,17.73055556,Teen,0,B,1,2,34,34,0.8,0.2,1,1,1,1,0.234992027
1,1,17.73055556,Teen,0,B,1,2,35,35,0.8,0.2,1,1,1,1,0.435252905
1,1,17.73055556,Teen,0,B,1,2,36,36,0.8,0.2,1,1,0,1,0.218579054
1,1,17.73055556,Teen,0,B,1,2,37,37,0.8,0.2,1,1,0,1,0.301888943
1,1,17.73055556,Teen,0,B,1,2,38,38,0.8,0.2,1,1,0,1,1.035072088
1,1,17.73055556,Teen,0,B,1,2,39,39,0.8,0.2,1,1,1,1,0.117063999
1,1,17.73055556,Teen,0,B,1,2,40,40,0.8,0.2,1,1,0,1,0.401888132
1,1,17.73055556,Teen,0,B,1,2,41,41,0.8,0.2,1,1,0,1,0.200273991
1,1,17.73055556,Teen,0,B,1,2,42,42,0.8,0.2,1,1,0,1,0.418541908
1,1,17.73055556,Teen,0,B,1,2,43,43,0.8,0.2,1,0,0,1,0.235109091
1,1,17.73055556,Teen,0,B,1,2,44,44,0.8,0.2,1,1,1,1,0.401896
1,1,17.73055556,Teen,0,B,1,2,45,45,0.8,0.2,1,1,1,1,0.318603039
1,1,17.73055556,Teen,0,B,1,2,46,46,0.8,0.2,1,1,1,1,0.385248899
1,1,17.73055556,Teen,0,B,1,2,47,47,0.8,0.2,1,1,1,1,0.918344975
1,1,17.73055556,Teen,0,B,1,2,48,48,0.8,0.2,1,1,1,1,0.485099077
1,1,17.73055556,Teen,0,B,1,2,49,49,0.8,0.2,1,1,1,1,0.518582106
1,1,17.73055556,Teen,0,B,1,2,50,50,0.8,0.2,1,1,0,1,0.235244036
1,1,17.73055556,Teen,0,B,2,3,51,1,0.8,0.2,0,0,0,0,2.934551001
1,1,17.73055556,Teen,0,B,2,3,52,2,0.8,0.2,0,0,0,0,0.201640129
1,1,17.73055556,Teen,0,B,2,3,53,3,0.8,0.2,1,1,1,1,0.101614952
